"Block","Trial","PatternType","LeftCoh","RightCoh","Response","RT","Acc","SessionDate","ParticipantID","Coh","Run","DegPSec"
1,4,"linear",0.05,0,"L",1.1344,"TRUE","2014-10-13",1,0.05,1,2
1,12,"linear",0,0.05,"L",2.1412,"FALSE","2014-10-13",1,0.05,1,2
2,4,"linear",0.05,0,"R",4.4376,"FALSE","2014-10-13",1,0.05,1,2
2,13,"linear",0,0.05,"R",3.1377,"TRUE","2014-10-13",1,0.05,1,2
3,7,"linear",0.05,0,"R",2.7523,"FALSE","2014-10-13",1,0.05,1,2
3,15,"linear",0,0.05,"R",1.5181,"TRUE","2014-10-13",1,0.05,1,2
4,5,"linear",0.05,0,"L",1.0846,"TRUE","2014-10-13",1,0.05,1,2
4,12,"linear",0,0.05,"R",1.9683,"TRUE","2014-10-13",1,0.05,1,2
5,6,"linear",0.05,0,"L",2.9196,"TRUE","2014-10-13",1,0.05,1,2
5,15,"linear",0,0.05,"R",3.737,"TRUE","2014-10-13",1,0.05,1,2
1,1,"linear",0.1,0,"L",3.0539,"TRUE","2014-10-13",1,0.1,1,2
1,10,"linear",0,0.1,"L",1.939,"FALSE","2014-10-13",1,0.1,1,2
2,2,"linear",0.1,0,"L",1.3216,"TRUE","2014-10-13",1,0.1,1,2
2,9,"linear",0,0.1,"L",1.7683,"FALSE","2014-10-13",1,0.1,1,2
3,5,"linear",0.1,0,"R",2.686,"FALSE","2014-10-13",1,0.1,1,2
3,14,"linear",0,0.1,"R",2.0564,"TRUE","2014-10-13",1,0.1,1,2
4,1,"linear",0.1,0,"L",1.2348,"TRUE","2014-10-13",1,0.1,1,2
4,10,"linear",0,0.1,"R",2.1351,"TRUE","2014-10-13",1,0.1,1,2
5,2,"linear",0.1,0,"L",2.052,"TRUE","2014-10-13",1,0.1,1,2
5,14,"linear",0,0.1,"R",1.1176,"TRUE","2014-10-13",1,0.1,1,2
1,8,"linear",0,0.15,"L",1.0178,"FALSE","2014-10-13",1,0.15,1,2
1,14,"linear",0.15,0,"L",0.88476,"TRUE","2014-10-13",1,0.15,1,2
2,8,"linear",0,0.15,"R",1.835,"TRUE","2014-10-13",1,0.15,1,2
2,16,"linear",0.15,0,"L",1.0873,"TRUE","2014-10-13",1,0.15,1,2
3,9,"linear",0,0.15,"R",1.0009,"TRUE","2014-10-13",1,0.15,1,2
3,16,"linear",0.15,0,"L",1.3011,"TRUE","2014-10-13",1,0.15,1,2
4,9,"linear",0,0.15,"L",1.3343,"FALSE","2014-10-13",1,0.15,1,2
4,14,"linear",0.15,0,"L",2.155,"TRUE","2014-10-13",1,0.15,1,2
5,13,"linear",0,0.15,"R",1.4231,"TRUE","2014-10-13",1,0.15,1,2
5,16,"linear",0.15,0,"L",1.718,"TRUE","2014-10-13",1,0.15,1,2
1,2,"linear",0.2,0,"L",0.85076,"TRUE","2014-10-13",1,0.2,1,2
1,5,"linear",0,0.2,"R",1.0344,"TRUE","2014-10-13",1,0.2,1,2
2,3,"linear",0.2,0,"L",0.86772,"TRUE","2014-10-13",1,0.2,1,2
2,5,"linear",0,0.2,"R",0.90089,"TRUE","2014-10-13",1,0.2,1,2
3,6,"linear",0.2,0,"L",1.151,"TRUE","2014-10-13",1,0.2,1,2
3,8,"linear",0,0.2,"L",1.1344,"FALSE","2014-10-13",1,0.2,1,2
4,4,"linear",0.2,0,"L",0.86751,"TRUE","2014-10-13",1,0.2,1,2
4,8,"linear",0,0.2,"R",1.1346,"TRUE","2014-10-13",1,0.2,1,2
5,3,"linear",0.2,0,"L",1.2381,"TRUE","2014-10-13",1,0.2,1,2
5,7,"linear",0,0.2,"R",0.95095,"TRUE","2014-10-13",1,0.2,1,2
1,6,"radial",0,0.05,"L",1.1844,"FALSE","2014-10-13",1,0.05,1,2
1,11,"radial",0.05,0,"R",2.3854,"FALSE","2014-10-13",1,0.05,1,2
2,6,"radial",0,0.05,"L",1.4181,"FALSE","2014-10-13",1,0.05,1,2
2,11,"radial",0.05,0,"R",2.2852,"FALSE","2014-10-13",1,0.05,1,2
3,2,"radial",0,0.05,"L",1.0511,"FALSE","2014-10-13",1,0.05,1,2
3,10,"radial",0.05,0,"L",3.2201,"TRUE","2014-10-13",1,0.05,1,2
4,3,"radial",0,0.05,"R",2.2352,"TRUE","2014-10-13",1,0.05,1,2
4,11,"radial",0.05,0,"L",1.8351,"TRUE","2014-10-13",1,0.05,1,2
5,4,"radial",0,0.05,"L",1.5014,"FALSE","2014-10-13",1,0.05,1,2
5,9,"radial",0.05,0,"R",2.1556,"FALSE","2014-10-13",1,0.05,1,2
1,15,"radial",0,0.1,"L",2.0746,"FALSE","2014-10-13",1,0.1,1,2
1,16,"radial",0.1,0,"R",2.1296,"FALSE","2014-10-13",1,0.1,1,2
2,14,"radial",0,0.1,"L",1.8408,"FALSE","2014-10-13",1,0.1,1,2
2,15,"radial",0.1,0,"L",2.869,"TRUE","2014-10-13",1,0.1,1,2
3,12,"radial",0,0.1,"R",2.8863,"TRUE","2014-10-13",1,0.1,1,2
3,13,"radial",0.1,0,"L",1.4223,"TRUE","2014-10-13",1,0.1,1,2
4,15,"radial",0,0.1,"R",1.7182,"TRUE","2014-10-13",1,0.1,1,2
4,16,"radial",0.1,0,"R",2.7358,"FALSE","2014-10-13",1,0.1,1,2
5,11,"radial",0,0.1,"R",1.4945,"TRUE","2014-10-13",1,0.1,1,2
5,12,"radial",0.1,0,"R",2.1351,"FALSE","2014-10-13",1,0.1,1,2
1,9,"radial",0,0.15,"L",1.402,"FALSE","2014-10-13",1,0.15,1,2
1,13,"radial",0.15,0,"L",1.1919,"TRUE","2014-10-13",1,0.15,1,2
2,10,"radial",0,0.15,"R",0.93426,"TRUE","2014-10-13",1,0.15,1,2
2,12,"radial",0.15,0,"L",0.96759,"TRUE","2014-10-13",1,0.15,1,2
3,4,"radial",0,0.15,"R",1.7348,"TRUE","2014-10-13",1,0.15,1,2
3,11,"radial",0.15,0,"L",1.3346,"TRUE","2014-10-13",1,0.15,1,2
4,7,"radial",0,0.15,"R",1.4854,"TRUE","2014-10-13",1,0.15,1,2
4,13,"radial",0.15,0,"L",1.9038,"TRUE","2014-10-13",1,0.15,1,2
5,8,"radial",0,0.15,"R",0.90103,"TRUE","2014-10-13",1,0.15,1,2
5,10,"radial",0.15,0,"L",1.0681,"TRUE","2014-10-13",1,0.15,1,2
1,3,"radial",0.2,0,"L",1.0013,"TRUE","2014-10-13",1,0.2,1,2
1,7,"radial",0,0.2,"R",1.0174,"TRUE","2014-10-13",1,0.2,1,2
2,1,"radial",0.2,0,"L",1.2012,"TRUE","2014-10-13",1,0.2,1,2
2,7,"radial",0,0.2,"R",0.95096,"TRUE","2014-10-13",1,0.2,1,2
3,1,"radial",0.2,0,"L",0.98428,"TRUE","2014-10-13",1,0.2,1,2
3,3,"radial",0,0.2,"R",0.83418,"TRUE","2014-10-13",1,0.2,1,2
4,2,"radial",0.2,0,"L",1.0177,"TRUE","2014-10-13",1,0.2,1,2
4,6,"radial",0,0.2,"L",1.4241,"FALSE","2014-10-13",1,0.2,1,2
5,1,"radial",0.2,0,"L",0.95111,"TRUE","2014-10-13",1,0.2,1,2
5,5,"radial",0,0.2,"R",1.785,"TRUE","2014-10-13",1,0.2,1,2
1,10,"linear",0.05,0,"L",2.769,"TRUE","2014-10-13",1,0.05,2,8
1,16,"linear",0,0.05,"R",3.4867,"TRUE","2014-10-13",1,0.05,2,8
2,10,"linear",0.05,0,"L",1.2845,"TRUE","2014-10-13",1,0.05,2,8
2,16,"linear",0,0.05,"R",3.8866,"TRUE","2014-10-13",1,0.05,2,8
3,12,"linear",0.05,0,"L",1.3919,"TRUE","2014-10-13",1,0.05,2,8
3,16,"linear",0,0.05,"L",1.8349,"FALSE","2014-10-13",1,0.05,2,8
4,12,"linear",0.05,0,"L",1.1105,"TRUE","2014-10-13",1,0.05,2,8
4,16,"linear",0,0.05,"R",1.529,"TRUE","2014-10-13",1,0.05,2,8
5,9,"linear",0.05,0,"L",0.834,"TRUE","2014-10-13",1,0.05,2,8
5,16,"linear",0,0.05,"R",3.2529,"TRUE","2014-10-13",1,0.05,2,8
1,5,"radial",0.05,0,"R",2.8529,"FALSE","2014-10-13",1,0.05,2,8
1,11,"radial",0,0.05,"R",2.586,"TRUE","2014-10-13",1,0.05,2,8
2,8,"radial",0.05,0,"R",1.3345,"FALSE","2014-10-13",1,0.05,2,8
2,11,"radial",0,0.05,"L",2.7857,"FALSE","2014-10-13",1,0.05,2,8
3,5,"radial",0.05,0,"R",1.568,"FALSE","2014-10-13",1,0.05,2,8
3,7,"radial",0,0.05,"L",2.5358,"FALSE","2014-10-13",1,0.05,2,8
4,7,"radial",0.05,0,"L",1.2345,"TRUE","2014-10-13",1,0.05,2,8
4,10,"radial",0,0.05,"L",2.7534,"FALSE","2014-10-13",1,0.05,2,8
5,8,"radial",0.05,0,"R",1.3514,"FALSE","2014-10-13",1,0.05,2,8
5,13,"radial",0,0.05,"L",2.7525,"FALSE","2014-10-13",1,0.05,2,8
1,7,"linear",0,0.1,"L",2.4021,"FALSE","2014-10-13",1,0.1,2,8
1,15,"linear",0.1,0,"R",3.7207,"FALSE","2014-10-13",1,0.1,2,8
2,3,"linear",0,0.1,"L",4.0909,"FALSE","2014-10-13",1,0.1,2,8
2,14,"linear",0.1,0,"L",1.835,"TRUE","2014-10-13",1,0.1,2,8
3,9,"linear",0,0.1,"L",0.98445,"FALSE","2014-10-13",1,0.1,2,8
3,15,"linear",0.1,0,"L",2.2855,"TRUE","2014-10-13",1,0.1,2,8
4,5,"linear",0,0.1,"R",3.4863,"TRUE","2014-10-13",1,0.1,2,8
4,15,"linear",0.1,0,"L",1.2253,"TRUE","2014-10-13",1,0.1,2,8
5,3,"linear",0,0.1,"R",1.9183,"TRUE","2014-10-13",1,0.1,2,8
5,14,"linear",0.1,0,"R",2.0019,"FALSE","2014-10-13",1,0.1,2,8
1,2,"radial",0.1,0,"R",1.5851,"FALSE","2014-10-13",1,0.1,2,8
1,9,"radial",0,0.1,"R",3.7867,"TRUE","2014-10-13",1,0.1,2,8
2,4,"radial",0.1,0,"L",1.3445,"TRUE","2014-10-13",1,0.1,2,8
2,9,"radial",0,0.1,"R",2.1871,"TRUE","2014-10-13",1,0.1,2,8
3,2,"radial",0.1,0,"L",2.1386,"TRUE","2014-10-13",1,0.1,2,8
3,6,"radial",0,0.1,"R",1.3552,"TRUE","2014-10-13",1,0.1,2,8
4,3,"radial",0.1,0,"L",1.8521,"TRUE","2014-10-13",1,0.1,2,8
4,9,"radial",0,0.1,"L",1.1847,"FALSE","2014-10-13",1,0.1,2,8
5,4,"radial",0.1,0,"L",0.95109,"TRUE","2014-10-13",1,0.1,2,8
5,12,"radial",0,0.1,"R",1.4177,"TRUE","2014-10-13",1,0.1,2,8
1,8,"linear",0.15,0,"L",1.0679,"TRUE","2014-10-13",1,0.15,2,8
1,13,"linear",0,0.15,"L",1.2845,"FALSE","2014-10-13",1,0.15,2,8
2,6,"linear",0.15,0,"L",1.001,"TRUE","2014-10-13",1,0.15,2,8
2,12,"linear",0,0.15,"R",1.5678,"TRUE","2014-10-13",1,0.15,2,8
3,11,"linear",0.15,0,"L",1.301,"TRUE","2014-10-13",1,0.15,2,8
3,13,"linear",0,0.15,"L",1.3847,"FALSE","2014-10-13",1,0.15,2,8
4,8,"linear",0.15,0,"L",0.9343,"TRUE","2014-10-13",1,0.15,2,8
4,13,"linear",0,0.15,"L",1.368,"FALSE","2014-10-13",1,0.15,2,8
5,5,"linear",0.15,0,"L",0.98398,"TRUE","2014-10-13",1,0.15,2,8
5,10,"linear",0,0.15,"R",1.8683,"TRUE","2014-10-13",1,0.15,2,8
1,1,"radial",0.15,0,"L",3.402,"TRUE","2014-10-13",1,0.15,2,8
1,3,"radial",0,0.15,"R",2.286,"TRUE","2014-10-13",1,0.15,2,8
2,2,"radial",0.15,0,"L",1.2012,"TRUE","2014-10-13",1,0.15,2,8
2,5,"radial",0,0.15,"R",1.4514,"TRUE","2014-10-13",1,0.15,2,8
3,1,"radial",0.15,0,"L",1.8348,"TRUE","2014-10-13",1,0.15,2,8
3,3,"radial",0,0.15,"R",1.001,"TRUE","2014-10-13",1,0.15,2,8
4,1,"radial",0.15,0,"L",1.241,"TRUE","2014-10-13",1,0.15,2,8
4,4,"radial",0,0.15,"R",2.4067,"TRUE","2014-10-13",1,0.15,2,8
5,2,"radial",0.15,0,"L",1.0844,"TRUE","2014-10-13",1,0.15,2,8
5,6,"radial",0,0.15,"L",1.9183,"FALSE","2014-10-13",1,0.15,2,8
1,6,"linear",0.2,0,"L",1.0343,"TRUE","2014-10-13",1,0.2,2,8
1,14,"linear",0,0.2,"R",0.90121,"TRUE","2014-10-13",1,0.2,2,8
2,1,"linear",0.2,0,"L",0.95093,"TRUE","2014-10-13",1,0.2,2,8
2,13,"linear",0,0.2,"R",1.1344,"TRUE","2014-10-13",1,0.2,2,8
3,8,"linear",0.2,0,"L",0.88424,"TRUE","2014-10-13",1,0.2,2,8
3,14,"linear",0,0.2,"R",1.3513,"TRUE","2014-10-13",1,0.2,2,8
4,2,"linear",0.2,0,"L",0.96766,"TRUE","2014-10-13",1,0.2,2,8
4,14,"linear",0,0.2,"R",1.2012,"TRUE","2014-10-13",1,0.2,2,8
5,1,"linear",0.2,0,"L",0.83767,"TRUE","2014-10-13",1,0.2,2,8
5,11,"linear",0,0.2,"R",1.0009,"TRUE","2014-10-13",1,0.2,2,8
1,4,"radial",0,0.2,"L",2.8856,"FALSE","2014-10-13",1,0.2,2,8
1,12,"radial",0.2,0,"L",0.9842,"TRUE","2014-10-13",1,0.2,2,8
2,7,"radial",0,0.2,"R",1.1009,"TRUE","2014-10-13",1,0.2,2,8
2,15,"radial",0.2,0,"L",0.90094,"TRUE","2014-10-13",1,0.2,2,8
3,4,"radial",0,0.2,"R",1.0356,"TRUE","2014-10-13",1,0.2,2,8
3,10,"radial",0.2,0,"L",1.1518,"TRUE","2014-10-13",1,0.2,2,8
4,6,"radial",0,0.2,"R",0.86781,"TRUE","2014-10-13",1,0.2,2,8
4,11,"radial",0.2,0,"L",1.0719,"TRUE","2014-10-13",1,0.2,2,8
5,7,"radial",0,0.2,"R",1.0847,"TRUE","2014-10-13",1,0.2,2,8
5,15,"radial",0.2,0,"L",1.468,"TRUE","2014-10-13",1,0.2,2,8
1,1,"linear",0.1,0,"R",2.6154,"FALSE","2014-10-28",1,0.1,1,2
1,2,"linear",0.2,0,"L",1.7685,"TRUE","2014-10-28",1,0.2,1,2
1,3,"radial",0.2,0,"L",0.98448,"TRUE","2014-10-28",1,0.2,1,2
1,4,"linear",0.05,0,"L",3.286,"TRUE","2014-10-28",1,0.05,1,2
1,5,"linear",0,0.2,"L",1.8017,"FALSE","2014-10-28",1,0.2,1,2
1,6,"radial",0,0.05,"R",3.6066,"TRUE","2014-10-28",1,0.05,1,2
1,7,"radial",0,0.2,"R",0.85086,"TRUE","2014-10-28",1,0.2,1,2
1,8,"linear",0,0.15,"R",0.96781,"TRUE","2014-10-28",1,0.15,1,2
1,9,"radial",0,0.15,"R",1.9354,"TRUE","2014-10-28",1,0.15,1,2
1,10,"linear",0,0.1,"R",1.8356,"TRUE","2014-10-28",1,0.1,1,2
1,11,"radial",0.05,0,"L",3.3196,"TRUE","2014-10-28",1,0.05,1,2
1,12,"linear",0,0.05,"L",1.8183,"FALSE","2014-10-28",1,0.05,1,2
1,13,"radial",0.15,0,"L",1.6016,"TRUE","2014-10-28",1,0.15,1,2
1,14,"linear",0.15,0,"L",2.2872,"TRUE","2014-10-28",1,0.15,1,2
1,15,"radial",0,0.1,"L",1.4352,"FALSE","2014-10-28",1,0.1,1,2
1,16,"radial",0.1,0,"L",2.7359,"TRUE","2014-10-28",1,0.1,1,2
2,1,"radial",0.2,0,"L",1.6012,"TRUE","2014-10-28",1,0.2,1,2
2,2,"linear",0.1,0,"L",2.0765,"TRUE","2014-10-28",1,0.1,1,2
2,3,"linear",0.2,0,"L",1.4865,"TRUE","2014-10-28",1,0.2,1,2
2,4,"linear",0.05,0,"L",1.7847,"TRUE","2014-10-28",1,0.05,1,2
2,5,"linear",0,0.2,"R",1.1513,"TRUE","2014-10-28",1,0.2,1,2
2,6,"radial",0,0.05,"L",2.0548,"FALSE","2014-10-28",1,0.05,1,2
2,7,"radial",0,0.2,"R",1.1178,"TRUE","2014-10-28",1,0.2,1,2
2,8,"linear",0,0.15,"R",1.2384,"TRUE","2014-10-28",1,0.15,1,2
2,9,"linear",0,0.1,"L",1.4512,"FALSE","2014-10-28",1,0.1,1,2
2,10,"radial",0,0.15,"R",1.0679,"TRUE","2014-10-28",1,0.15,1,2
2,11,"radial",0.05,0,"R",2.669,"FALSE","2014-10-28",1,0.05,1,2
2,12,"radial",0.15,0,"L",1.7683,"TRUE","2014-10-28",1,0.15,1,2
2,13,"linear",0,0.05,"R",2.3185,"TRUE","2014-10-28",1,0.05,1,2
2,14,"radial",0,0.1,"R",1.9682,"TRUE","2014-10-28",1,0.1,1,2
2,15,"radial",0.1,0,"R",1.9018,"FALSE","2014-10-28",1,0.1,1,2
2,16,"linear",0.15,0,"L",0.83439,"TRUE","2014-10-28",1,0.15,1,2
3,1,"radial",0.2,0,"L",1.8017,"TRUE","2014-10-28",1,0.2,1,2
3,2,"radial",0,0.05,"L",2.6356,"FALSE","2014-10-28",1,0.05,1,2
3,3,"radial",0,0.2,"R",1.2679,"TRUE","2014-10-28",1,0.2,1,2
3,4,"radial",0,0.15,"R",1.8519,"TRUE","2014-10-28",1,0.15,1,2
3,5,"linear",0.1,0,"L",1.2049,"TRUE","2014-10-28",1,0.1,1,2
3,6,"linear",0.2,0,"L",0.85104,"TRUE","2014-10-28",1,0.2,1,2
3,7,"linear",0.05,0,"R",2.1184,"FALSE","2014-10-28",1,0.05,1,2
3,8,"linear",0,0.2,"L",1.8351,"FALSE","2014-10-28",1,0.2,1,2
3,9,"linear",0,0.15,"R",1.1846,"TRUE","2014-10-28",1,0.15,1,2
3,10,"radial",0.05,0,"R",1.785,"FALSE","2014-10-28",1,0.05,1,2
3,11,"radial",0.15,0,"L",0.93435,"TRUE","2014-10-28",1,0.15,1,2
3,12,"radial",0,0.1,"R",2.3186,"TRUE","2014-10-28",1,0.1,1,2
3,13,"radial",0.1,0,"R",2.6191,"FALSE","2014-10-28",1,0.1,1,2
3,14,"linear",0,0.1,"L",1.8852,"FALSE","2014-10-28",1,0.1,1,2
3,15,"linear",0,0.05,"L",1.1513,"FALSE","2014-10-28",1,0.05,1,2
3,16,"linear",0.15,0,"L",1.062,"TRUE","2014-10-28",1,0.15,1,2
4,1,"linear",0.1,0,"L",0.98631,"TRUE","2014-10-28",1,0.1,1,2
4,2,"radial",0.2,0,"L",1.4514,"TRUE","2014-10-28",1,0.2,1,2
4,3,"radial",0,0.05,"R",2.6522,"TRUE","2014-10-28",1,0.05,1,2
4,4,"linear",0.2,0,"L",0.86755,"TRUE","2014-10-28",1,0.2,1,2
4,5,"linear",0.05,0,"R",1.7018,"FALSE","2014-10-28",1,0.05,1,2
4,6,"radial",0,0.2,"R",1.1846,"TRUE","2014-10-28",1,0.2,1,2
4,7,"radial",0,0.15,"L",0.96784,"FALSE","2014-10-28",1,0.15,1,2
4,8,"linear",0,0.2,"R",1.8853,"TRUE","2014-10-28",1,0.2,1,2
4,9,"linear",0,0.15,"L",1.1676,"FALSE","2014-10-28",1,0.15,1,2
4,10,"linear",0,0.1,"R",1.9349,"TRUE","2014-10-28",1,0.1,1,2
4,11,"radial",0.05,0,"L",1.8351,"TRUE","2014-10-28",1,0.05,1,2
4,12,"linear",0,0.05,"R",1.4016,"TRUE","2014-10-28",1,0.05,1,2
4,13,"radial",0.15,0,"L",1.7512,"TRUE","2014-10-28",1,0.15,1,2
4,14,"linear",0.15,0,"R",3.0691,"FALSE","2014-10-28",1,0.15,1,2
4,15,"radial",0,0.1,"R",2.1204,"TRUE","2014-10-28",1,0.1,1,2
4,16,"radial",0.1,0,"L",2.5859,"TRUE","2014-10-28",1,0.1,1,2
5,1,"radial",0.2,0,"L",0.81775,"TRUE","2014-10-28",1,0.2,1,2
5,2,"linear",0.1,0,"R",2.0029,"FALSE","2014-10-28",1,0.1,1,2
5,3,"linear",0.2,0,"L",0.90114,"TRUE","2014-10-28",1,0.2,1,2
5,4,"radial",0,0.05,"R",1.2349,"TRUE","2014-10-28",1,0.05,1,2
5,5,"radial",0,0.2,"R",1.4548,"TRUE","2014-10-28",1,0.2,1,2
5,6,"linear",0.05,0,"L",1.735,"TRUE","2014-10-28",1,0.05,1,2
5,7,"linear",0,0.2,"R",2.1192,"TRUE","2014-10-28",1,0.2,1,2
5,8,"radial",0,0.15,"R",1.2176,"TRUE","2014-10-28",1,0.15,1,2
5,9,"radial",0.05,0,"R",2.9192,"FALSE","2014-10-28",1,0.05,1,2
5,10,"radial",0.15,0,"L",1.135,"TRUE","2014-10-28",1,0.15,1,2
5,11,"radial",0,0.1,"L",2.9196,"FALSE","2014-10-28",1,0.1,1,2
5,12,"radial",0.1,0,"L",1.8184,"TRUE","2014-10-28",1,0.1,1,2
5,13,"linear",0,0.15,"R",1.6184,"TRUE","2014-10-28",1,0.15,1,2
5,14,"linear",0,0.1,"R",2.4521,"TRUE","2014-10-28",1,0.1,1,2
5,15,"linear",0,0.05,"R",2.1519,"TRUE","2014-10-28",1,0.05,1,2
5,16,"linear",0.15,0,"L",0.86788,"TRUE","2014-10-28",1,0.15,1,2
1,1,"linear",0.1,0,"L",1.1177,"TRUE","2014-10-28",1,0.1,3,2
1,2,"linear",0.2,0,"L",0.88429,"TRUE","2014-10-28",1,0.2,3,2
1,3,"radial",0.2,0,"L",1.0009,"TRUE","2014-10-28",1,0.2,3,2
1,4,"linear",0.05,0,"R",1.2698,"FALSE","2014-10-28",1,0.05,3,2
1,5,"linear",0,0.2,"L",0.81755,"FALSE","2014-10-28",1,0.2,3,2
1,6,"radial",0,0.05,"R",2.5084,"TRUE","2014-10-28",1,0.05,3,2
1,7,"radial",0,0.2,"R",1.1067,"TRUE","2014-10-28",1,0.2,3,2
1,8,"linear",0,0.15,"R",0.90144,"TRUE","2014-10-28",1,0.15,3,2
1,9,"radial",0,0.15,"R",1.4724,"TRUE","2014-10-28",1,0.15,3,2
1,10,"linear",0,0.1,"L",1.6684,"FALSE","2014-10-28",1,0.1,3,2
1,11,"radial",0.05,0,"R",2.0541,"FALSE","2014-10-28",1,0.05,3,2
1,12,"linear",0,0.05,"R",1.7856,"TRUE","2014-10-28",1,0.05,3,2
1,13,"radial",0.15,0,"R",1.9683,"FALSE","2014-10-28",1,0.15,3,2
1,14,"linear",0.15,0,"L",0.71756,"TRUE","2014-10-28",1,0.15,3,2
1,15,"radial",0,0.1,"R",1.3011,"TRUE","2014-10-28",1,0.1,3,2
1,16,"radial",0.1,0,"L",1.2845,"TRUE","2014-10-28",1,0.1,3,2
2,1,"radial",0.2,0,"L",1.051,"TRUE","2014-10-28",1,0.2,3,2
2,2,"linear",0.1,0,"L",0.96758,"TRUE","2014-10-28",1,0.1,3,2
2,3,"linear",0.2,0,"L",0.75052,"TRUE","2014-10-28",1,0.2,3,2
2,4,"linear",0.05,0,"R",1.9851,"FALSE","2014-10-28",1,0.05,3,2
2,5,"linear",0,0.2,"L",0.98434,"FALSE","2014-10-28",1,0.2,3,2
2,6,"radial",0,0.05,"L",1.3678,"FALSE","2014-10-28",1,0.05,3,2
2,7,"radial",0,0.2,"R",0.9176,"TRUE","2014-10-28",1,0.2,3,2
2,8,"linear",0,0.15,"R",1.5897,"TRUE","2014-10-28",1,0.15,3,2
2,9,"linear",0,0.1,"L",0.8025,"FALSE","2014-10-28",1,0.1,3,2
2,10,"radial",0,0.15,"L",2.569,"FALSE","2014-10-28",1,0.15,3,2
2,11,"radial",0.05,0,"L",1.537,"TRUE","2014-10-28",1,0.05,3,2
2,12,"radial",0.15,0,"R",1.7183,"FALSE","2014-10-28",1,0.15,3,2
2,13,"linear",0,0.05,"R",1.5012,"TRUE","2014-10-28",1,0.05,3,2
2,14,"radial",0,0.1,"R",0.951,"TRUE","2014-10-28",1,0.1,3,2
2,15,"radial",0.1,0,"L",3.3028,"TRUE","2014-10-28",1,0.1,3,2
2,16,"linear",0.15,0,"L",2.3018,"TRUE","2014-10-28",1,0.15,3,2
3,1,"radial",0.2,0,"L",2.29,"TRUE","2014-10-28",1,0.2,3,2
3,2,"radial",0,0.05,"L",2.569,"FALSE","2014-10-28",1,0.05,3,2
3,3,"radial",0,0.2,"L",0.9676,"FALSE","2014-10-28",1,0.2,3,2
3,4,"radial",0,0.15,"R",1.3752,"TRUE","2014-10-28",1,0.15,3,2
3,5,"linear",0.1,0,"L",1.5682,"TRUE","2014-10-28",1,0.1,3,2
3,6,"linear",0.2,0,"L",0.96798,"TRUE","2014-10-28",1,0.2,3,2
3,7,"linear",0.05,0,"R",1.9014,"FALSE","2014-10-28",1,0.05,3,2
3,8,"linear",0,0.2,"R",1.0513,"TRUE","2014-10-28",1,0.2,3,2
3,9,"linear",0,0.15,"L",2.0353,"FALSE","2014-10-28",1,0.15,3,2
3,10,"radial",0.05,0,"R",1.2844,"FALSE","2014-10-28",1,0.05,3,2
3,11,"radial",0.15,0,"L",1.0178,"TRUE","2014-10-28",1,0.15,3,2
3,12,"radial",0,0.1,"L",1.9017,"FALSE","2014-10-28",1,0.1,3,2
3,13,"radial",0.1,0,"R",2.7525,"FALSE","2014-10-28",1,0.1,3,2
3,14,"linear",0,0.1,"R",1.4346,"TRUE","2014-10-28",1,0.1,3,2
3,15,"linear",0,0.05,"R",1.8515,"TRUE","2014-10-28",1,0.05,3,2
3,16,"linear",0.15,0,"L",1.0343,"TRUE","2014-10-28",1,0.15,3,2
4,1,"linear",0.1,0,"L",3.72,"TRUE","2014-10-28",1,0.1,3,2
4,2,"radial",0.2,0,"L",1.0176,"TRUE","2014-10-28",1,0.2,3,2
4,3,"radial",0,0.05,"L",1.4347,"FALSE","2014-10-28",1,0.05,3,2
4,4,"linear",0.2,0,"L",0.90088,"TRUE","2014-10-28",1,0.2,3,2
4,5,"linear",0.05,0,"R",1.3349,"FALSE","2014-10-28",1,0.05,3,2
4,6,"radial",0,0.2,"R",1.3533,"TRUE","2014-10-28",1,0.2,3,2
4,7,"radial",0,0.15,"R",1.6035,"TRUE","2014-10-28",1,0.15,3,2
4,8,"linear",0,0.2,"R",0.96778,"TRUE","2014-10-28",1,0.2,3,2
4,9,"linear",0,0.15,"R",1.601,"TRUE","2014-10-28",1,0.15,3,2
4,10,"linear",0,0.1,"L",1.5345,"FALSE","2014-10-28",1,0.1,3,2
4,11,"radial",0.05,0,"L",2.7527,"TRUE","2014-10-28",1,0.05,3,2
4,12,"linear",0,0.05,"R",2.2884,"TRUE","2014-10-28",1,0.05,3,2
4,13,"radial",0.15,0,"L",1.8187,"TRUE","2014-10-28",1,0.15,3,2
4,14,"linear",0.15,0,"L",0.96766,"TRUE","2014-10-28",1,0.15,3,2
4,15,"radial",0,0.1,"L",1.4008,"FALSE","2014-10-28",1,0.1,3,2
4,16,"radial",0.1,0,"L",2.3188,"TRUE","2014-10-28",1,0.1,3,2
5,1,"radial",0.2,0,"L",1.1347,"TRUE","2014-10-28",1,0.2,3,2
5,2,"linear",0.1,0,"R",1.2702,"FALSE","2014-10-28",1,0.1,3,2
5,3,"linear",0.2,0,"L",0.8176,"TRUE","2014-10-28",1,0.2,3,2
5,4,"radial",0,0.05,"L",1.3177,"FALSE","2014-10-28",1,0.05,3,2
5,5,"radial",0,0.2,"R",0.90088,"TRUE","2014-10-28",1,0.2,3,2
5,6,"linear",0.05,0,"R",1.5846,"FALSE","2014-10-28",1,0.05,3,2
5,7,"linear",0,0.2,"R",1.0509,"TRUE","2014-10-28",1,0.2,3,2
5,8,"radial",0,0.15,"R",1.2697,"TRUE","2014-10-28",1,0.15,3,2
5,9,"radial",0.05,0,"L",1.7684,"TRUE","2014-10-28",1,0.05,3,2
5,10,"radial",0.15,0,"L",2.5307,"TRUE","2014-10-28",1,0.15,3,2
5,11,"radial",0,0.1,"L",1.3352,"FALSE","2014-10-28",1,0.1,3,2
5,12,"radial",0.1,0,"R",1.3176,"FALSE","2014-10-28",1,0.1,3,2
5,13,"linear",0,0.15,"R",1.0178,"TRUE","2014-10-28",1,0.15,3,2
5,14,"linear",0,0.1,"R",1.4343,"TRUE","2014-10-28",1,0.1,3,2
5,15,"linear",0,0.05,"R",1.902,"TRUE","2014-10-28",1,0.05,3,2
5,16,"linear",0.15,0,"L",1.0676,"TRUE","2014-10-28",1,0.15,3,2
1,1,"radial",0.15,0,"L",1.8853,"TRUE","2014-10-28",1,0.15,2,8
1,2,"radial",0.1,0,"R",3.1692,"FALSE","2014-10-28",1,0.1,2,8
1,3,"radial",0,0.15,"R",1.1596,"TRUE","2014-10-28",1,0.15,2,8
1,4,"radial",0,0.2,"R",1.3678,"TRUE","2014-10-28",1,0.2,2,8
1,5,"radial",0.05,0,"L",1.9517,"TRUE","2014-10-28",1,0.05,2,8
1,6,"linear",0.2,0,"L",1.0009,"TRUE","2014-10-28",1,0.2,2,8
1,7,"linear",0,0.1,"L",1.401,"FALSE","2014-10-28",1,0.1,2,8
1,8,"linear",0.15,0,"L",1.4181,"TRUE","2014-10-28",1,0.15,2,8
1,9,"radial",0,0.1,"R",2.36,"TRUE","2014-10-28",1,0.1,2,8
1,10,"linear",0.05,0,"L",3.4696,"TRUE","2014-10-28",1,0.05,2,8
1,11,"radial",0,0.05,"L",1.8183,"FALSE","2014-10-28",1,0.05,2,8
1,12,"radial",0.2,0,"L",1.0844,"TRUE","2014-10-28",1,0.2,2,8
1,13,"linear",0,0.15,"L",1.8519,"FALSE","2014-10-28",1,0.15,2,8
1,14,"linear",0,0.2,"R",1.9517,"TRUE","2014-10-28",1,0.2,2,8
1,15,"linear",0.1,0,"R",2.7022,"FALSE","2014-10-28",1,0.1,2,8
1,16,"linear",0,0.05,"L",2.3352,"FALSE","2014-10-28",1,0.05,2,8
2,1,"linear",0.2,0,"L",0.98428,"TRUE","2014-10-28",1,0.2,2,8
2,2,"radial",0.15,0,"L",1.9685,"TRUE","2014-10-28",1,0.15,2,8
2,3,"linear",0,0.1,"R",2.8691,"TRUE","2014-10-28",1,0.1,2,8
2,4,"radial",0.1,0,"L",1.7852,"TRUE","2014-10-28",1,0.1,2,8
2,5,"radial",0,0.15,"R",1.5511,"TRUE","2014-10-28",1,0.15,2,8
2,6,"linear",0.15,0,"R",2.9524,"FALSE","2014-10-28",1,0.15,2,8
2,7,"radial",0,0.2,"R",1.0009,"TRUE","2014-10-28",1,0.2,2,8
2,8,"radial",0.05,0,"R",1.9518,"FALSE","2014-10-28",1,0.05,2,8
2,9,"radial",0,0.1,"L",3.1239,"FALSE","2014-10-28",1,0.1,2,8
2,10,"linear",0.05,0,"L",1.2513,"TRUE","2014-10-28",1,0.05,2,8
2,11,"radial",0,0.05,"R",3.1886,"TRUE","2014-10-28",1,0.05,2,8
2,12,"linear",0,0.15,"L",1.5347,"FALSE","2014-10-28",1,0.15,2,8
2,13,"linear",0,0.2,"R",1.9019,"TRUE","2014-10-28",1,0.2,2,8
2,14,"linear",0.1,0,"L",2.1375,"TRUE","2014-10-28",1,0.1,2,8
2,15,"radial",0.2,0,"L",0.78431,"TRUE","2014-10-28",1,0.2,2,8
2,16,"linear",0,0.05,"R",2.102,"TRUE","2014-10-28",1,0.05,2,8
3,1,"radial",0.15,0,"L",1.2676,"TRUE","2014-10-28",1,0.15,2,8
3,2,"radial",0.1,0,"L",1.9538,"TRUE","2014-10-28",1,0.1,2,8
3,3,"radial",0,0.15,"R",1.3098,"TRUE","2014-10-28",1,0.15,2,8
3,4,"radial",0,0.2,"R",0.9845,"TRUE","2014-10-28",1,0.2,2,8
3,5,"radial",0.05,0,"R",1.5452,"FALSE","2014-10-28",1,0.05,2,8
3,6,"radial",0,0.1,"R",1.9021,"TRUE","2014-10-28",1,0.1,2,8
3,7,"radial",0,0.05,"L",2.969,"FALSE","2014-10-28",1,0.05,2,8
3,8,"linear",0.2,0,"L",1.0511,"TRUE","2014-10-28",1,0.2,2,8
3,9,"linear",0,0.1,"L",1.2847,"FALSE","2014-10-28",1,0.1,2,8
3,10,"radial",0.2,0,"L",0.90095,"TRUE","2014-10-28",1,0.2,2,8
3,11,"linear",0.15,0,"L",0.95106,"TRUE","2014-10-28",1,0.15,2,8
3,12,"linear",0.05,0,"R",2.1355,"FALSE","2014-10-28",1,0.05,2,8
3,13,"linear",0,0.15,"L",1.001,"FALSE","2014-10-28",1,0.15,2,8
3,14,"linear",0,0.2,"R",1.351,"TRUE","2014-10-28",1,0.2,2,8
3,15,"linear",0.1,0,"L",2.0688,"TRUE","2014-10-28",1,0.1,2,8
3,16,"linear",0,0.05,"L",1.1347,"FALSE","2014-10-28",1,0.05,2,8
4,1,"radial",0.15,0,"L",2.6857,"TRUE","2014-10-28",1,0.15,2,8
4,2,"linear",0.2,0,"L",1.2846,"TRUE","2014-10-28",1,0.2,2,8
4,3,"radial",0.1,0,"R",2.6691,"FALSE","2014-10-28",1,0.1,2,8
4,4,"radial",0,0.15,"L",1.9518,"FALSE","2014-10-28",1,0.15,2,8
4,5,"linear",0,0.1,"R",2.0518,"TRUE","2014-10-28",1,0.1,2,8
4,6,"radial",0,0.2,"R",0.93416,"TRUE","2014-10-28",1,0.2,2,8
4,7,"radial",0.05,0,"L",3.7202,"TRUE","2014-10-28",1,0.05,2,8
4,8,"linear",0.15,0,"L",1.101,"TRUE","2014-10-28",1,0.15,2,8
4,9,"radial",0,0.1,"L",1.8016,"FALSE","2014-10-28",1,0.1,2,8
4,10,"radial",0,0.05,"L",1.9684,"FALSE","2014-10-28",1,0.05,2,8
4,11,"radial",0.2,0,"L",0.93455,"TRUE","2014-10-28",1,0.2,2,8
4,12,"linear",0.05,0,"L",2.8885,"TRUE","2014-10-28",1,0.05,2,8
4,13,"linear",0,0.15,"R",1.3756,"TRUE","2014-10-28",1,0.15,2,8
4,14,"linear",0,0.2,"R",1.6014,"TRUE","2014-10-28",1,0.2,2,8
4,15,"linear",0.1,0,"L",1.2511,"TRUE","2014-10-28",1,0.1,2,8
4,16,"linear",0,0.05,"R",2.4764,"TRUE","2014-10-28",1,0.05,2,8
5,1,"linear",0.2,0,"L",0.76737,"TRUE","2014-10-28",1,0.2,2,8
5,2,"radial",0.15,0,"L",1.168,"TRUE","2014-10-28",1,0.15,2,8
5,3,"linear",0,0.1,"L",1.2348,"FALSE","2014-10-28",1,0.1,2,8
5,4,"radial",0.1,0,"L",1.8849,"TRUE","2014-10-28",1,0.1,2,8
5,5,"linear",0.15,0,"L",1.3012,"TRUE","2014-10-28",1,0.15,2,8
5,6,"radial",0,0.15,"L",1.1177,"FALSE","2014-10-28",1,0.15,2,8
5,7,"radial",0,0.2,"R",0.91767,"TRUE","2014-10-28",1,0.2,2,8
5,8,"radial",0.05,0,"L",3.72,"TRUE","2014-10-28",1,0.05,2,8
5,9,"linear",0.05,0,"L",1.2011,"TRUE","2014-10-28",1,0.05,2,8
5,10,"linear",0,0.15,"R",2.5082,"TRUE","2014-10-28",1,0.15,2,8
5,11,"linear",0,0.2,"R",1.0915,"TRUE","2014-10-28",1,0.2,2,8
5,12,"radial",0,0.1,"R",1.5347,"TRUE","2014-10-28",1,0.1,2,8
5,13,"radial",0,0.05,"R",2.0354,"TRUE","2014-10-28",1,0.05,2,8
5,14,"linear",0.1,0,"L",1.0175,"TRUE","2014-10-28",1,0.1,2,8
5,15,"radial",0.2,0,"L",0.68814,"TRUE","2014-10-28",1,0.2,2,8
5,16,"linear",0,0.05,"R",1.6682,"TRUE","2014-10-28",1,0.05,2,8
1,1,"radial",0.15,0,"L",1.2344,"TRUE","2014-10-28",1,0.15,4,8
1,2,"radial",0.1,0,"L",1.6085,"TRUE","2014-10-28",1,0.1,4,8
1,3,"radial",0,0.15,"R",0.86817,"TRUE","2014-10-28",1,0.15,4,8
1,4,"radial",0,0.2,"R",1.101,"TRUE","2014-10-28",1,0.2,4,8
1,5,"radial",0.05,0,"R",2.8022,"FALSE","2014-10-28",1,0.05,4,8
1,6,"linear",0.2,0,"L",0.90075,"TRUE","2014-10-28",1,0.2,4,8
1,7,"linear",0,0.1,"R",1.2679,"TRUE","2014-10-28",1,0.1,4,8
1,8,"linear",0.15,0,"L",1.3845,"TRUE","2014-10-28",1,0.15,4,8
1,9,"radial",0,0.1,"R",1.301,"TRUE","2014-10-28",1,0.1,4,8
1,10,"linear",0.05,0,"L",1.4179,"TRUE","2014-10-28",1,0.05,4,8
1,11,"radial",0,0.05,"R",1.0509,"TRUE","2014-10-28",1,0.05,4,8
1,12,"radial",0.2,0,"L",1.0512,"TRUE","2014-10-28",1,0.2,4,8
1,13,"linear",0,0.15,"R",2.1683,"TRUE","2014-10-28",1,0.15,4,8
1,14,"linear",0,0.2,"R",1.9518,"TRUE","2014-10-28",1,0.2,4,8
1,15,"linear",0.1,0,"R",1.8684,"FALSE","2014-10-28",1,0.1,4,8
1,16,"linear",0,0.05,"R",2.7358,"TRUE","2014-10-28",1,0.05,4,8
2,1,"linear",0.2,0,"L",0.96776,"TRUE","2014-10-28",1,0.2,4,8
2,2,"radial",0.15,0,"L",1.0176,"TRUE","2014-10-28",1,0.15,4,8
2,3,"linear",0,0.1,"L",1.3349,"FALSE","2014-10-28",1,0.1,4,8
2,4,"radial",0.1,0,"L",1.4203,"TRUE","2014-10-28",1,0.1,4,8
2,5,"radial",0,0.15,"R",1.055,"TRUE","2014-10-28",1,0.15,4,8
2,6,"linear",0.15,0,"L",1.0514,"TRUE","2014-10-28",1,0.15,4,8
2,7,"radial",0,0.2,"R",0.98444,"TRUE","2014-10-28",1,0.2,4,8
2,8,"radial",0.05,0,"R",3.6706,"FALSE","2014-10-28",1,0.05,4,8
2,9,"radial",0,0.1,"R",2.1683,"TRUE","2014-10-28",1,0.1,4,8
2,10,"linear",0.05,0,"L",1.3012,"TRUE","2014-10-28",1,0.05,4,8
2,11,"radial",0,0.05,"R",2.2184,"TRUE","2014-10-28",1,0.05,4,8
2,12,"linear",0,0.15,"R",1.552,"TRUE","2014-10-28",1,0.15,4,8
2,13,"linear",0,0.2,"R",1.1844,"TRUE","2014-10-28",1,0.2,4,8
2,14,"linear",0.1,0,"L",1.051,"TRUE","2014-10-28",1,0.1,4,8
2,15,"radial",0.2,0,"L",0.88425,"TRUE","2014-10-28",1,0.2,4,8
2,16,"linear",0,0.05,"R",1.578,"TRUE","2014-10-28",1,0.05,4,8
3,1,"radial",0.15,0,"L",1.3183,"TRUE","2014-10-28",1,0.15,4,8
3,2,"radial",0.1,0,"R",1.735,"FALSE","2014-10-28",1,0.1,4,8
3,3,"radial",0,0.15,"R",1.1677,"TRUE","2014-10-28",1,0.15,4,8
3,4,"radial",0,0.2,"R",0.98436,"TRUE","2014-10-28",1,0.2,4,8
3,5,"radial",0.05,0,"R",2.3526,"FALSE","2014-10-28",1,0.05,4,8
3,6,"radial",0,0.1,"R",1.8354,"TRUE","2014-10-28",1,0.1,4,8
3,7,"radial",0,0.05,"R",1.5179,"TRUE","2014-10-28",1,0.05,4,8
3,8,"linear",0.2,0,"L",0.95094,"TRUE","2014-10-28",1,0.2,4,8
3,9,"linear",0,0.1,"R",2.2019,"TRUE","2014-10-28",1,0.1,4,8
3,10,"radial",0.2,0,"L",0.83417,"TRUE","2014-10-28",1,0.2,4,8
3,11,"linear",0.15,0,"L",1.0342,"TRUE","2014-10-28",1,0.15,4,8
3,12,"linear",0.05,0,"R",1.0843,"FALSE","2014-10-28",1,0.05,4,8
3,13,"linear",0,0.15,"L",0.93417,"FALSE","2014-10-28",1,0.15,4,8
3,14,"linear",0,0.2,"R",1.001,"TRUE","2014-10-28",1,0.2,4,8
3,15,"linear",0.1,0,"R",2.4519,"FALSE","2014-10-28",1,0.1,4,8
3,16,"linear",0,0.05,"R",2.1519,"TRUE","2014-10-28",1,0.05,4,8
4,1,"radial",0.15,0,"L",1.5915,"TRUE","2014-10-28",1,0.15,4,8
4,2,"linear",0.2,0,"L",0.76747,"TRUE","2014-10-28",1,0.2,4,8
4,3,"radial",0.1,0,"R",2.4886,"FALSE","2014-10-28",1,0.1,4,8
4,4,"radial",0,0.15,"R",1.1345,"TRUE","2014-10-28",1,0.15,4,8
4,5,"linear",0,0.1,"R",1.5682,"TRUE","2014-10-28",1,0.1,4,8
4,6,"radial",0,0.2,"R",0.79248,"TRUE","2014-10-28",1,0.2,4,8
4,7,"radial",0.05,0,"R",3.2361,"FALSE","2014-10-28",1,0.05,4,8
4,8,"linear",0.15,0,"L",0.75513,"TRUE","2014-10-28",1,0.15,4,8
4,9,"radial",0,0.1,"R",2.5357,"TRUE","2014-10-28",1,0.1,4,8
4,10,"radial",0,0.05,"R",1.1844,"TRUE","2014-10-28",1,0.05,4,8
4,11,"radial",0.2,0,"L",1.0179,"TRUE","2014-10-28",1,0.2,4,8
4,12,"linear",0.05,0,"L",2.7691,"TRUE","2014-10-28",1,0.05,4,8
4,13,"linear",0,0.15,"R",2.5856,"TRUE","2014-10-28",1,0.15,4,8
4,14,"linear",0,0.2,"R",0.88431,"TRUE","2014-10-28",1,0.2,4,8
4,15,"linear",0.1,0,"L",0.96781,"TRUE","2014-10-28",1,0.1,4,8
4,16,"linear",0,0.05,"R",1.7682,"TRUE","2014-10-28",1,0.05,4,8
5,1,"linear",0.2,0,"L",0.93419,"TRUE","2014-10-28",1,0.2,4,8
5,2,"radial",0.15,0,"L",1.0675,"TRUE","2014-10-28",1,0.15,4,8
5,3,"linear",0,0.1,"R",1.3011,"TRUE","2014-10-28",1,0.1,4,8
5,4,"radial",0.1,0,"L",1.2847,"TRUE","2014-10-28",1,0.1,4,8
5,5,"linear",0.15,0,"L",0.93407,"TRUE","2014-10-28",1,0.15,4,8
5,6,"radial",0,0.15,"R",1.235,"TRUE","2014-10-28",1,0.15,4,8
5,7,"radial",0,0.2,"R",0.95087,"TRUE","2014-10-28",1,0.2,4,8
5,8,"radial",0.05,0,"R",2.6691,"FALSE","2014-10-28",1,0.05,4,8
5,9,"linear",0.05,0,"L",1.0008,"TRUE","2014-10-28",1,0.05,4,8
5,10,"linear",0,0.15,"R",1.6012,"TRUE","2014-10-28",1,0.15,4,8
5,11,"linear",0,0.2,"R",1.3392,"TRUE","2014-10-28",1,0.2,4,8
5,12,"radial",0,0.1,"R",4.2703,"TRUE","2014-10-28",1,0.1,4,8
5,13,"radial",0,0.05,"R",1.2257,"TRUE","2014-10-28",1,0.05,4,8
5,14,"linear",0.1,0,"L",1.3179,"TRUE","2014-10-28",1,0.1,4,8
5,15,"radial",0.2,0,"L",0.91764,"TRUE","2014-10-28",1,0.2,4,8
5,16,"linear",0,0.05,"R",1.4845,"TRUE","2014-10-28",1,0.05,4,8
1,1,"linear",0.1,0,"L",6.6108,"TRUE","2014-11-05",2,0.1,1,2
1,2,"linear",0.2,0,"L",2.069,"TRUE","2014-11-05",2,0.2,1,2
1,3,"radial",0.2,0,"L",2.0518,"TRUE","2014-11-05",2,0.2,1,2
1,4,"linear",0.05,0,"L",2.3186,"TRUE","2014-11-05",2,0.05,1,2
1,5,"linear",0,0.2,"L",4.8548,"FALSE","2014-11-05",2,0.2,1,2
1,6,"radial",0,0.05,"L",2.6022,"FALSE","2014-11-05",2,0.05,1,2
1,7,"radial",0,0.2,"R",2.6208,"TRUE","2014-11-05",2,0.2,1,2
1,8,"linear",0,0.15,"R",1.9017,"TRUE","2014-11-05",2,0.15,1,2
1,9,"radial",0,0.15,"L",2.9868,"FALSE","2014-11-05",2,0.15,1,2
1,10,"linear",0,0.1,"R",4.9373,"TRUE","2014-11-05",2,0.1,1,2
1,11,"radial",0.05,0,"R",3.2694,"FALSE","2014-11-05",2,0.05,1,2
1,12,"linear",0,0.05,"L",5.0876,"FALSE","2014-11-05",2,0.05,1,2
1,13,"radial",0.15,0,"L",4.604,"TRUE","2014-11-05",2,0.15,1,2
1,14,"linear",0.15,0,"L",3.3363,"TRUE","2014-11-05",2,0.15,1,2
1,15,"radial",0,0.1,"L",5.7551,"FALSE","2014-11-05",2,0.1,1,2
1,16,"radial",0.1,0,"R",4.0536,"FALSE","2014-11-05",2,0.1,1,2
2,1,"radial",0.2,0,"L",1.4516,"TRUE","2014-11-05",2,0.2,1,2
2,2,"linear",0.1,0,"L",3.1531,"TRUE","2014-11-05",2,0.1,1,2
2,3,"linear",0.2,0,"L",2.4855,"TRUE","2014-11-05",2,0.2,1,2
2,4,"linear",0.05,0,"R",4.5871,"FALSE","2014-11-05",2,0.05,1,2
2,5,"linear",0,0.2,"R",3.3532,"TRUE","2014-11-05",2,0.2,1,2
2,6,"radial",0,0.05,"L",3.4028,"FALSE","2014-11-05",2,0.05,1,2
2,7,"radial",0,0.2,"R",2.2358,"TRUE","2014-11-05",2,0.2,1,2
2,8,"linear",0,0.15,"R",2.3858,"TRUE","2014-11-05",2,0.15,1,2
2,9,"linear",0,0.1,"R",3.2532,"TRUE","2014-11-05",2,0.1,1,2
2,10,"radial",0,0.15,"R",1.418,"TRUE","2014-11-05",2,0.15,1,2
2,11,"radial",0.05,0,"L",2.453,"TRUE","2014-11-05",2,0.05,1,2
2,12,"radial",0.15,0,"L",1.6347,"TRUE","2014-11-05",2,0.15,1,2
2,13,"linear",0,0.05,"R",3.6034,"TRUE","2014-11-05",2,0.05,1,2
2,14,"radial",0,0.1,"R",2.0425,"TRUE","2014-11-05",2,0.1,1,2
2,15,"radial",0.1,0,"L",1.8513,"TRUE","2014-11-05",2,0.1,1,2
2,16,"linear",0.15,0,"L",2.5737,"TRUE","2014-11-05",2,0.15,1,2
3,1,"radial",0.2,0,"L",0.9842,"TRUE","2014-11-05",2,0.2,1,2
3,2,"radial",0,0.05,"R",3.1694,"TRUE","2014-11-05",2,0.05,1,2
3,3,"radial",0,0.2,"R",1.1342,"TRUE","2014-11-05",2,0.2,1,2
3,4,"radial",0,0.15,"R",1.1344,"TRUE","2014-11-05",2,0.15,1,2
3,5,"linear",0.1,0,"L",1.0177,"TRUE","2014-11-05",2,0.1,1,2
3,6,"linear",0.2,0,"L",1.0013,"TRUE","2014-11-05",2,0.2,1,2
3,7,"linear",0.05,0,"L",3.1529,"TRUE","2014-11-05",2,0.05,1,2
3,8,"linear",0,0.2,"R",0.96811,"TRUE","2014-11-05",2,0.2,1,2
3,9,"linear",0,0.15,"R",1.9185,"TRUE","2014-11-05",2,0.15,1,2
3,10,"radial",0.05,0,"L",2.8354,"TRUE","2014-11-05",2,0.05,1,2
3,11,"radial",0.15,0,"L",1.8575,"TRUE","2014-11-05",2,0.15,1,2
3,12,"radial",0,0.1,"R",2.5736,"TRUE","2014-11-05",2,0.1,1,2
3,13,"radial",0.1,0,"L",1.3513,"TRUE","2014-11-05",2,0.1,1,2
3,14,"linear",0,0.1,"R",2.5188,"TRUE","2014-11-05",2,0.1,1,2
3,15,"linear",0,0.05,"R",2.8372,"TRUE","2014-11-05",2,0.05,1,2
3,16,"linear",0.15,0,"L",0.97216,"TRUE","2014-11-05",2,0.15,1,2
4,1,"linear",0.1,0,"L",1.7011,"TRUE","2014-11-05",2,0.1,1,2
4,2,"radial",0.2,0,"L",0.85562,"TRUE","2014-11-05",2,0.2,1,2
4,3,"radial",0,0.05,"R",1.7922,"TRUE","2014-11-05",2,0.05,1,2
4,4,"linear",0.2,0,"L",0.91762,"TRUE","2014-11-05",2,0.2,1,2
4,5,"linear",0.05,0,"L",2.6524,"TRUE","2014-11-05",2,0.05,1,2
4,6,"radial",0,0.2,"R",1.8184,"TRUE","2014-11-05",2,0.2,1,2
4,7,"radial",0,0.15,"R",0.81738,"TRUE","2014-11-05",2,0.15,1,2
4,8,"linear",0,0.2,"R",3.1361,"TRUE","2014-11-05",2,0.2,1,2
4,9,"linear",0,0.15,"L",3.6028,"FALSE","2014-11-05",2,0.15,1,2
4,10,"linear",0,0.1,"R",2.5687,"TRUE","2014-11-05",2,0.1,1,2
4,11,"radial",0.05,0,"R",2.59,"FALSE","2014-11-05",2,0.05,1,2
4,12,"linear",0,0.05,"L",3.3361,"FALSE","2014-11-05",2,0.05,1,2
4,13,"radial",0.15,0,"R",3.4362,"FALSE","2014-11-05",2,0.15,1,2
4,14,"linear",0.15,0,"L",2.4209,"TRUE","2014-11-05",2,0.15,1,2
4,15,"radial",0,0.1,"L",4.1703,"FALSE","2014-11-05",2,0.1,1,2
4,16,"radial",0.1,0,"R",9.5083,"FALSE","2014-11-05",2,0.1,1,2
5,1,"radial",0.2,0,"L",1.0344,"TRUE","2014-11-05",2,0.2,1,2
5,2,"linear",0.1,0,"L",3.7033,"TRUE","2014-11-05",2,0.1,1,2
5,3,"linear",0.2,0,"L",2.7396,"TRUE","2014-11-05",2,0.2,1,2
5,4,"radial",0,0.05,"R",5.8551,"TRUE","2014-11-05",2,0.05,1,2
5,5,"radial",0,0.2,"R",1.1786,"TRUE","2014-11-05",2,0.2,1,2
5,6,"linear",0.05,0,"L",2.2103,"TRUE","2014-11-05",2,0.05,1,2
5,7,"linear",0,0.2,"R",2.2354,"TRUE","2014-11-05",2,0.2,1,2
5,8,"radial",0,0.15,"R",1.2845,"TRUE","2014-11-05",2,0.15,1,2
5,9,"radial",0.05,0,"R",5.4051,"FALSE","2014-11-05",2,0.05,1,2
5,10,"radial",0.15,0,"R",4.2264,"FALSE","2014-11-05",2,0.15,1,2
5,11,"radial",0,0.1,"L",2.2083,"FALSE","2014-11-05",2,0.1,1,2
5,12,"radial",0.1,0,"R",1.351,"FALSE","2014-11-05",2,0.1,1,2
5,13,"linear",0,0.15,"R",2.1191,"TRUE","2014-11-05",2,0.15,1,2
5,14,"linear",0,0.1,"R",2.7023,"TRUE","2014-11-05",2,0.1,1,2
5,15,"linear",0,0.05,"R",5.9553,"TRUE","2014-11-05",2,0.05,1,2
5,16,"linear",0.15,0,"L",1.3348,"TRUE","2014-11-05",2,0.15,1,2
1,1,"linear",0.1,0,"L",1.9181,"TRUE","2014-11-05",2,0.1,4,2
1,2,"linear",0.2,0,"L",0.734,"TRUE","2014-11-05",2,0.2,4,2
1,3,"radial",0.2,0,"L",0.86756,"TRUE","2014-11-05",2,0.2,4,2
1,4,"linear",0.05,0,"L",2.6024,"TRUE","2014-11-05",2,0.05,4,2
1,5,"linear",0,0.2,"R",0.93424,"TRUE","2014-11-05",2,0.2,4,2
1,6,"radial",0,0.05,"L",2.7023,"FALSE","2014-11-05",2,0.05,4,2
1,7,"radial",0,0.2,"R",1.0514,"TRUE","2014-11-05",2,0.2,4,2
1,8,"linear",0,0.15,"R",2.4855,"TRUE","2014-11-05",2,0.15,4,2
1,9,"radial",0,0.15,"R",1.1344,"TRUE","2014-11-05",2,0.15,4,2
1,10,"linear",0,0.1,"R",2.4188,"TRUE","2014-11-05",2,0.1,4,2
1,11,"radial",0.05,0,"L",2.4356,"TRUE","2014-11-05",2,0.05,4,2
1,12,"linear",0,0.05,"R",2.4022,"TRUE","2014-11-05",2,0.05,4,2
1,13,"radial",0.15,0,"L",0.78415,"TRUE","2014-11-05",2,0.15,4,2
1,14,"linear",0.15,0,"L",0.7508,"TRUE","2014-11-05",2,0.15,4,2
1,15,"radial",0,0.1,"R",1.2405,"TRUE","2014-11-05",2,0.1,4,2
1,16,"radial",0.1,0,"L",2.3854,"TRUE","2014-11-05",2,0.1,4,2
2,1,"radial",0.2,0,"L",0.66737,"TRUE","2014-11-05",2,0.2,4,2
2,2,"linear",0.1,0,"R",2.5689,"FALSE","2014-11-05",2,0.1,4,2
2,3,"linear",0.2,0,"L",0.85096,"TRUE","2014-11-05",2,0.2,4,2
2,4,"linear",0.05,0,"R",2.2853,"FALSE","2014-11-05",2,0.05,4,2
2,5,"linear",0,0.2,"R",0.78394,"TRUE","2014-11-05",2,0.2,4,2
2,6,"radial",0,0.05,"R",1.2612,"TRUE","2014-11-05",2,0.05,4,2
2,7,"radial",0,0.2,"R",1.2412,"TRUE","2014-11-05",2,0.2,4,2
2,8,"linear",0,0.15,"R",0.81743,"TRUE","2014-11-05",2,0.15,4,2
2,9,"linear",0,0.1,"R",1.0198,"TRUE","2014-11-05",2,0.1,4,2
2,10,"radial",0,0.15,"R",1.0357,"TRUE","2014-11-05",2,0.15,4,2
2,11,"radial",0.05,0,"L",3.3531,"TRUE","2014-11-05",2,0.05,4,2
2,12,"radial",0.15,0,"L",0.71731,"TRUE","2014-11-05",2,0.15,4,2
2,13,"linear",0,0.05,"R",1.0573,"TRUE","2014-11-05",2,0.05,4,2
2,14,"radial",0,0.1,"R",1.2344,"TRUE","2014-11-05",2,0.1,4,2
2,15,"radial",0.1,0,"L",2.4188,"TRUE","2014-11-05",2,0.1,4,2
2,16,"linear",0.15,0,"L",0.7843,"TRUE","2014-11-05",2,0.15,4,2
3,1,"radial",0.2,0,"L",0.56719,"TRUE","2014-11-05",2,0.2,4,2
3,2,"radial",0,0.05,"L",1.7683,"FALSE","2014-11-05",2,0.05,4,2
3,3,"radial",0,0.2,"R",0.6511,"TRUE","2014-11-05",2,0.2,4,2
3,4,"radial",0,0.15,"R",0.95091,"TRUE","2014-11-05",2,0.15,4,2
3,5,"linear",0.1,0,"L",1.2559,"TRUE","2014-11-05",2,0.1,4,2
3,6,"linear",0.2,0,"L",0.99114,"TRUE","2014-11-05",2,0.2,4,2
3,7,"linear",0.05,0,"L",2.6592,"TRUE","2014-11-05",2,0.05,4,2
3,8,"linear",0,0.2,"R",0.70507,"TRUE","2014-11-05",2,0.2,4,2
3,9,"linear",0,0.15,"R",0.91786,"TRUE","2014-11-05",2,0.15,4,2
3,10,"radial",0.05,0,"L",2.4854,"TRUE","2014-11-05",2,0.05,4,2
3,11,"radial",0.15,0,"L",0.75076,"TRUE","2014-11-05",2,0.15,4,2
3,12,"radial",0,0.1,"R",2.5188,"TRUE","2014-11-05",2,0.1,4,2
3,13,"radial",0.1,0,"L",3.5699,"TRUE","2014-11-05",2,0.1,4,2
3,14,"linear",0,0.1,"L",2.5522,"FALSE","2014-11-05",2,0.1,4,2
3,15,"linear",0,0.05,"R",1.5348,"TRUE","2014-11-05",2,0.05,4,2
3,16,"linear",0.15,0,"L",1.0841,"TRUE","2014-11-05",2,0.15,4,2
4,1,"linear",0.1,0,"L",0.90093,"TRUE","2014-11-05",2,0.1,4,2
4,2,"radial",0.2,0,"L",0.65068,"TRUE","2014-11-05",2,0.2,4,2
4,3,"radial",0,0.05,"R",1.5183,"TRUE","2014-11-05",2,0.05,4,2
4,4,"linear",0.2,0,"L",0.73398,"TRUE","2014-11-05",2,0.2,4,2
4,5,"linear",0.05,0,"L",1.2205,"TRUE","2014-11-05",2,0.05,4,2
4,6,"radial",0,0.2,"R",2.3354,"TRUE","2014-11-05",2,0.2,4,2
4,7,"radial",0,0.15,"R",2.386,"TRUE","2014-11-05",2,0.15,4,2
4,8,"linear",0,0.2,"R",1.418,"TRUE","2014-11-05",2,0.2,4,2
4,9,"linear",0,0.15,"R",0.91773,"TRUE","2014-11-05",2,0.15,4,2
4,10,"linear",0,0.1,"R",1.0185,"TRUE","2014-11-05",2,0.1,4,2
4,11,"radial",0.05,0,"R",2.5689,"FALSE","2014-11-05",2,0.05,4,2
4,12,"linear",0,0.05,"R",2.5525,"TRUE","2014-11-05",2,0.05,4,2
4,13,"radial",0.15,0,"L",1.1752,"TRUE","2014-11-05",2,0.15,4,2
4,14,"linear",0.15,0,"L",1.435,"TRUE","2014-11-05",2,0.15,4,2
4,15,"radial",0,0.1,"R",1.3847,"TRUE","2014-11-05",2,0.1,4,2
4,16,"radial",0.1,0,"L",1.001,"TRUE","2014-11-05",2,0.1,4,2
5,1,"radial",0.2,0,"L",0.7341,"TRUE","2014-11-05",2,0.2,4,2
5,2,"linear",0.1,0,"L",0.9869,"TRUE","2014-11-05",2,0.1,4,2
5,3,"linear",0.2,0,"L",0.70113,"TRUE","2014-11-05",2,0.2,4,2
5,4,"radial",0,0.05,"L",0.7508,"FALSE","2014-11-05",2,0.05,4,2
5,5,"radial",0,0.2,"R",0.75099,"TRUE","2014-11-05",2,0.2,4,2
5,6,"linear",0.05,0,"L",2.0848,"TRUE","2014-11-05",2,0.05,4,2
5,7,"linear",0,0.2,"R",0.95123,"TRUE","2014-11-05",2,0.2,4,2
5,8,"radial",0,0.15,"R",0.85089,"TRUE","2014-11-05",2,0.15,4,2
5,9,"radial",0.05,0,"L",2.3025,"TRUE","2014-11-05",2,0.05,4,2
5,10,"radial",0.15,0,"L",0.78423,"TRUE","2014-11-05",2,0.15,4,2
5,11,"radial",0,0.1,"R",2.5189,"TRUE","2014-11-05",2,0.1,4,2
5,12,"radial",0.1,0,"L",4.4203,"TRUE","2014-11-05",2,0.1,4,2
5,13,"linear",0,0.15,"R",2.202,"TRUE","2014-11-05",2,0.15,4,2
5,14,"linear",0,0.1,"R",2.9692,"TRUE","2014-11-05",2,0.1,4,2
5,15,"linear",0,0.05,"L",2.3189,"FALSE","2014-11-05",2,0.05,4,2
5,16,"linear",0.15,0,"L",0.86747,"TRUE","2014-11-05",2,0.15,4,2
1,1,"radial",0.15,0,"L",1.2678,"TRUE","2014-11-05",2,0.15,2,8
1,2,"radial",0.1,0,"R",1.0247,"FALSE","2014-11-05",2,0.1,2,8
1,3,"radial",0,0.15,"R",1.5014,"TRUE","2014-11-05",2,0.15,2,8
1,4,"radial",0,0.2,"R",1.1213,"TRUE","2014-11-05",2,0.2,2,8
1,5,"radial",0.05,0,"R",2.5356,"FALSE","2014-11-05",2,0.05,2,8
1,6,"linear",0.2,0,"L",1.5179,"TRUE","2014-11-05",2,0.2,2,8
1,7,"linear",0,0.1,"R",2.819,"TRUE","2014-11-05",2,0.1,2,8
1,8,"linear",0.15,0,"R",2.4021,"FALSE","2014-11-05",2,0.15,2,8
1,9,"radial",0,0.1,"R",1.2009,"TRUE","2014-11-05",2,0.1,2,8
1,10,"linear",0.05,0,"L",2.5022,"TRUE","2014-11-05",2,0.05,2,8
1,11,"radial",0,0.05,"R",2.6358,"TRUE","2014-11-05",2,0.05,2,8
1,12,"radial",0.2,0,"L",0.76736,"TRUE","2014-11-05",2,0.2,2,8
1,13,"linear",0,0.15,"R",1.7182,"TRUE","2014-11-05",2,0.15,2,8
1,14,"linear",0,0.2,"R",1.1508,"TRUE","2014-11-05",2,0.2,2,8
1,15,"linear",0.1,0,"R",2.0367,"FALSE","2014-11-05",2,0.1,2,8
1,16,"linear",0,0.05,"R",2.2856,"TRUE","2014-11-05",2,0.05,2,8
2,1,"linear",0.2,0,"L",0.81758,"TRUE","2014-11-05",2,0.2,2,8
2,2,"radial",0.15,0,"L",1.2176,"TRUE","2014-11-05",2,0.15,2,8
2,3,"linear",0,0.1,"R",3.5364,"TRUE","2014-11-05",2,0.1,2,8
2,4,"radial",0.1,0,"L",1.5348,"TRUE","2014-11-05",2,0.1,2,8
2,5,"radial",0,0.15,"L",1.106,"FALSE","2014-11-05",2,0.15,2,8
2,6,"linear",0.15,0,"L",1.1896,"TRUE","2014-11-05",2,0.15,2,8
2,7,"radial",0,0.2,"R",0.99233,"TRUE","2014-11-05",2,0.2,2,8
2,8,"radial",0.05,0,"R",1.4016,"FALSE","2014-11-05",2,0.05,2,8
2,9,"radial",0,0.1,"R",1.5179,"TRUE","2014-11-05",2,0.1,2,8
2,10,"linear",0.05,0,"L",2.5523,"TRUE","2014-11-05",2,0.05,2,8
2,11,"radial",0,0.05,"L",1.1342,"FALSE","2014-11-05",2,0.05,2,8
2,12,"linear",0,0.15,"R",2.5524,"TRUE","2014-11-05",2,0.15,2,8
2,13,"linear",0,0.2,"R",0.85675,"TRUE","2014-11-05",2,0.2,2,8
2,14,"linear",0.1,0,"R",2.5519,"FALSE","2014-11-05",2,0.1,2,8
2,15,"radial",0.2,0,"L",0.81756,"TRUE","2014-11-05",2,0.2,2,8
2,16,"linear",0,0.05,"R",1.4846,"TRUE","2014-11-05",2,0.05,2,8
3,1,"radial",0.15,0,"L",1.0252,"TRUE","2014-11-05",2,0.15,2,8
3,2,"radial",0.1,0,"R",1.3848,"FALSE","2014-11-05",2,0.1,2,8
3,3,"radial",0,0.15,"R",1.4848,"TRUE","2014-11-05",2,0.15,2,8
3,4,"radial",0,0.2,"R",0.78409,"TRUE","2014-11-05",2,0.2,2,8
3,5,"radial",0.05,0,"R",2.7025,"FALSE","2014-11-05",2,0.05,2,8
3,6,"radial",0,0.1,"R",2.3688,"TRUE","2014-11-05",2,0.1,2,8
3,7,"radial",0,0.05,"R",1.1176,"TRUE","2014-11-05",2,0.05,2,8
3,8,"linear",0.2,0,"L",0.51737,"TRUE","2014-11-05",2,0.2,2,8
3,9,"linear",0,0.1,"R",1.0512,"TRUE","2014-11-05",2,0.1,2,8
3,10,"radial",0.2,0,"L",0.58384,"TRUE","2014-11-05",2,0.2,2,8
3,11,"linear",0.15,0,"L",1.0891,"TRUE","2014-11-05",2,0.15,2,8
3,12,"linear",0.05,0,"R",0.95072,"FALSE","2014-11-05",2,0.05,2,8
3,13,"linear",0,0.15,"R",1.0562,"TRUE","2014-11-05",2,0.15,2,8
3,14,"linear",0,0.2,"R",0.95092,"TRUE","2014-11-05",2,0.2,2,8
3,15,"linear",0.1,0,"L",1.2347,"TRUE","2014-11-05",2,0.1,2,8
3,16,"linear",0,0.05,"L",1.1954,"FALSE","2014-11-05",2,0.05,2,8
4,1,"radial",0.15,0,"L",0.88834,"TRUE","2014-11-05",2,0.15,2,8
4,2,"linear",0.2,0,"L",0.71732,"TRUE","2014-11-05",2,0.2,2,8
4,3,"radial",0.1,0,"R",1.4679,"FALSE","2014-11-05",2,0.1,2,8
4,4,"radial",0,0.15,"L",0.68425,"FALSE","2014-11-05",2,0.15,2,8
4,5,"linear",0,0.1,"L",2.7951,"FALSE","2014-11-05",2,0.1,2,8
4,6,"radial",0,0.2,"R",1.2011,"TRUE","2014-11-05",2,0.2,2,8
4,7,"radial",0.05,0,"L",2.7036,"TRUE","2014-11-05",2,0.05,2,8
4,8,"linear",0.15,0,"L",0.90125,"TRUE","2014-11-05",2,0.15,2,8
4,9,"radial",0,0.1,"R",2.0515,"TRUE","2014-11-05",2,0.1,2,8
4,10,"radial",0,0.05,"R",2.5689,"TRUE","2014-11-05",2,0.05,2,8
4,11,"radial",0.2,0,"L",0.68397,"TRUE","2014-11-05",2,0.2,2,8
4,12,"linear",0.05,0,"R",1.3676,"FALSE","2014-11-05",2,0.05,2,8
4,13,"linear",0,0.15,"L",3.9369,"FALSE","2014-11-05",2,0.15,2,8
4,14,"linear",0,0.2,"R",0.78437,"TRUE","2014-11-05",2,0.2,2,8
4,15,"linear",0.1,0,"L",1.3354,"TRUE","2014-11-05",2,0.1,2,8
4,16,"linear",0,0.05,"R",2.7753,"TRUE","2014-11-05",2,0.05,2,8
5,1,"linear",0.2,0,"L",0.77748,"TRUE","2014-11-05",2,0.2,2,8
5,2,"radial",0.15,0,"L",1.0511,"TRUE","2014-11-05",2,0.15,2,8
5,3,"linear",0,0.1,"L",4.0034,"FALSE","2014-11-05",2,0.1,2,8
5,4,"radial",0.1,0,"R",3.7701,"FALSE","2014-11-05",2,0.1,2,8
5,5,"linear",0.15,0,"L",1.2344,"TRUE","2014-11-05",2,0.15,2,8
5,6,"radial",0,0.15,"R",1.1191,"TRUE","2014-11-05",2,0.15,2,8
5,7,"radial",0,0.2,"R",0.95226,"TRUE","2014-11-05",2,0.2,2,8
5,8,"radial",0.05,0,"R",1.1226,"FALSE","2014-11-05",2,0.05,2,8
5,9,"linear",0.05,0,"L",1.5351,"TRUE","2014-11-05",2,0.05,2,8
5,10,"linear",0,0.15,"R",2.4024,"TRUE","2014-11-05",2,0.15,2,8
5,11,"linear",0,0.2,"R",1.2008,"TRUE","2014-11-05",2,0.2,2,8
5,12,"radial",0,0.1,"L",1.5017,"FALSE","2014-11-05",2,0.1,2,8
5,13,"radial",0,0.05,"R",2.6525,"TRUE","2014-11-05",2,0.05,2,8
5,14,"linear",0.1,0,"L",1.4513,"TRUE","2014-11-05",2,0.1,2,8
5,15,"radial",0.2,0,"L",0.70097,"TRUE","2014-11-05",2,0.2,2,8
5,16,"linear",0,0.05,"R",1.3012,"TRUE","2014-11-05",2,0.05,2,8
1,1,"radial",0.15,0,"L",1.4514,"TRUE","2014-11-05",2,0.15,3,8
1,2,"radial",0.1,0,"R",2.1018,"FALSE","2014-11-05",2,0.1,3,8
1,3,"radial",0,0.15,"R",1.5513,"TRUE","2014-11-05",2,0.15,3,8
1,4,"radial",0,0.2,"R",2.5357,"TRUE","2014-11-05",2,0.2,3,8
1,5,"radial",0.05,0,"L",2.1019,"TRUE","2014-11-05",2,0.05,3,8
1,6,"linear",0.2,0,"L",0.75089,"TRUE","2014-11-05",2,0.2,3,8
1,7,"linear",0,0.1,"R",0.96769,"TRUE","2014-11-05",2,0.1,3,8
1,8,"linear",0.15,0,"L",0.71743,"TRUE","2014-11-05",2,0.15,3,8
1,9,"radial",0,0.1,"R",1.139,"TRUE","2014-11-05",2,0.1,3,8
1,10,"linear",0.05,0,"L",1.4347,"TRUE","2014-11-05",2,0.05,3,8
1,11,"radial",0,0.05,"R",1.2011,"TRUE","2014-11-05",2,0.05,3,8
1,12,"radial",0.2,0,"L",0.83414,"TRUE","2014-11-05",2,0.2,3,8
1,13,"linear",0,0.15,"R",1.101,"TRUE","2014-11-05",2,0.15,3,8
1,14,"linear",0,0.2,"R",0.9023,"TRUE","2014-11-05",2,0.2,3,8
1,15,"linear",0.1,0,"L",1.0009,"TRUE","2014-11-05",2,0.1,3,8
1,16,"linear",0,0.05,"R",1.2749,"TRUE","2014-11-05",2,0.05,3,8
2,1,"linear",0.2,0,"L",0.61732,"TRUE","2014-11-05",2,0.2,3,8
2,2,"radial",0.15,0,"L",1.1885,"TRUE","2014-11-05",2,0.15,3,8
2,3,"linear",0,0.1,"R",1.418,"TRUE","2014-11-05",2,0.1,3,8
2,4,"radial",0.1,0,"L",1.1011,"TRUE","2014-11-05",2,0.1,3,8
2,5,"radial",0,0.15,"L",0.9194,"FALSE","2014-11-05",2,0.15,3,8
2,6,"linear",0.15,0,"L",0.9675,"TRUE","2014-11-05",2,0.15,3,8
2,7,"radial",0,0.2,"R",1.0342,"TRUE","2014-11-05",2,0.2,3,8
2,8,"radial",0.05,0,"L",1.1752,"TRUE","2014-11-05",2,0.05,3,8
2,9,"radial",0,0.1,"R",1.1074,"TRUE","2014-11-05",2,0.1,3,8
2,10,"linear",0.05,0,"R",1.2067,"FALSE","2014-11-05",2,0.05,3,8
2,11,"radial",0,0.05,"L",0.53387,"FALSE","2014-11-05",2,0.05,3,8
2,12,"linear",0,0.15,"R",2.2356,"TRUE","2014-11-05",2,0.15,3,8
2,13,"linear",0,0.2,"R",0.91764,"TRUE","2014-11-05",2,0.2,3,8
2,14,"linear",0.1,0,"L",0.7675,"TRUE","2014-11-05",2,0.1,3,8
2,15,"radial",0.2,0,"L",0.73411,"TRUE","2014-11-05",2,0.2,3,8
2,16,"linear",0,0.05,"R",2.6188,"TRUE","2014-11-05",2,0.05,3,8
3,1,"radial",0.15,0,"L",1.0547,"TRUE","2014-11-05",2,0.15,3,8
3,2,"radial",0.1,0,"L",1.0534,"TRUE","2014-11-05",2,0.1,3,8
3,3,"radial",0,0.15,"R",2.4858,"TRUE","2014-11-05",2,0.15,3,8
3,4,"radial",0,0.2,"R",1.0677,"TRUE","2014-11-05",2,0.2,3,8
3,5,"radial",0.05,0,"L",1.7018,"TRUE","2014-11-05",2,0.05,3,8
3,6,"radial",0,0.1,"L",1.6017,"FALSE","2014-11-05",2,0.1,3,8
3,7,"radial",0,0.05,"R",2.102,"TRUE","2014-11-05",2,0.05,3,8
3,8,"linear",0.2,0,"L",0.75085,"TRUE","2014-11-05",2,0.2,3,8
3,9,"linear",0,0.1,"L",2.4686,"FALSE","2014-11-05",2,0.1,3,8
3,10,"radial",0.2,0,"L",1.1394,"TRUE","2014-11-05",2,0.2,3,8
3,11,"linear",0.15,0,"L",0.85561,"TRUE","2014-11-05",2,0.15,3,8
3,12,"linear",0.05,0,"R",2.3856,"FALSE","2014-11-05",2,0.05,3,8
3,13,"linear",0,0.15,"R",1.1515,"TRUE","2014-11-05",2,0.15,3,8
3,14,"linear",0,0.2,"R",0.81732,"TRUE","2014-11-05",2,0.2,3,8
3,15,"linear",0.1,0,"L",1.3122,"TRUE","2014-11-05",2,0.1,3,8
3,16,"linear",0,0.05,"R",2.719,"TRUE","2014-11-05",2,0.05,3,8
4,1,"radial",0.15,0,"L",1.001,"TRUE","2014-11-05",2,0.15,3,8
4,2,"linear",0.2,0,"L",0.66761,"TRUE","2014-11-05",2,0.2,3,8
4,3,"radial",0.1,0,"R",1.1064,"FALSE","2014-11-05",2,0.1,3,8
4,4,"radial",0,0.15,"R",2.1685,"TRUE","2014-11-05",2,0.15,3,8
4,5,"linear",0,0.1,"R",4.5727,"TRUE","2014-11-05",2,0.1,3,8
4,6,"radial",0,0.2,"R",0.8174,"TRUE","2014-11-05",2,0.2,3,8
4,7,"radial",0.05,0,"R",1.2927,"FALSE","2014-11-05",2,0.05,3,8
4,8,"linear",0.15,0,"L",1.0345,"TRUE","2014-11-05",2,0.15,3,8
4,9,"radial",0,0.1,"R",2.8526,"TRUE","2014-11-05",2,0.1,3,8
4,10,"radial",0,0.05,"L",1.5181,"FALSE","2014-11-05",2,0.05,3,8
4,11,"radial",0.2,0,"L",0.90156,"TRUE","2014-11-05",2,0.2,3,8
4,12,"linear",0.05,0,"R",1.1345,"FALSE","2014-11-05",2,0.05,3,8
4,13,"linear",0,0.15,"R",0.76754,"TRUE","2014-11-05",2,0.15,3,8
4,14,"linear",0,0.2,"R",0.76752,"TRUE","2014-11-05",2,0.2,3,8
4,15,"linear",0.1,0,"L",0.70076,"TRUE","2014-11-05",2,0.1,3,8
4,16,"linear",0,0.05,"R",1.9729,"TRUE","2014-11-05",2,0.05,3,8
5,1,"linear",0.2,0,"L",0.73993,"TRUE","2014-11-05",2,0.2,3,8
5,2,"radial",0.15,0,"L",2.2524,"TRUE","2014-11-05",2,0.15,3,8
5,3,"linear",0,0.1,"R",2.2854,"TRUE","2014-11-05",2,0.1,3,8
5,4,"radial",0.1,0,"L",0.95081,"TRUE","2014-11-05",2,0.1,3,8
5,5,"linear",0.15,0,"L",0.75065,"TRUE","2014-11-05",2,0.15,3,8
5,6,"radial",0,0.15,"R",2.4856,"TRUE","2014-11-05",2,0.15,3,8
5,7,"radial",0,0.2,"R",1.051,"TRUE","2014-11-05",2,0.2,3,8
5,8,"radial",0.05,0,"L",1.4347,"TRUE","2014-11-05",2,0.05,3,8
5,9,"linear",0.05,0,"R",3.3195,"FALSE","2014-11-05",2,0.05,3,8
5,10,"linear",0,0.15,"R",1.1511,"TRUE","2014-11-05",2,0.15,3,8
5,11,"linear",0,0.2,"R",0.80444,"TRUE","2014-11-05",2,0.2,3,8
5,12,"radial",0,0.1,"R",1.2846,"TRUE","2014-11-05",2,0.1,3,8
5,13,"radial",0,0.05,"R",2.4372,"TRUE","2014-11-05",2,0.05,3,8
5,14,"linear",0.1,0,"L",1.3178,"TRUE","2014-11-05",2,0.1,3,8
5,15,"radial",0.2,0,"L",0.65273,"TRUE","2014-11-05",2,0.2,3,8
5,16,"linear",0,0.05,"R",2.7951,"TRUE","2014-11-05",2,0.05,3,8
1,1,"linear",0.1,0,"L",6.8559,"TRUE","2014-11-05",3,0.1,1,2
1,2,"linear",0.2,0,"R",2.1852,"FALSE","2014-11-05",3,0.2,1,2
1,3,"radial",0.2,0,"L",2.3256,"TRUE","2014-11-05",3,0.2,1,2
1,4,"linear",0.05,0,"L",2.8189,"TRUE","2014-11-05",3,0.05,1,2
1,5,"linear",0,0.2,"L",4.4208,"FALSE","2014-11-05",3,0.2,1,2
1,6,"radial",0,0.05,"R",6.1888,"TRUE","2014-11-05",3,0.05,1,2
1,7,"radial",0,0.2,"R",2.8694,"TRUE","2014-11-05",3,0.2,1,2
1,8,"linear",0,0.15,"L",2.4189,"FALSE","2014-11-05",3,0.15,1,2
1,9,"radial",0,0.15,"R",2.0743,"TRUE","2014-11-05",3,0.15,1,2
1,10,"linear",0,0.1,"L",2.1684,"FALSE","2014-11-05",3,0.1,1,2
1,11,"radial",0.05,0,"R",7.3729,"FALSE","2014-11-05",3,0.05,1,2
1,12,"linear",0,0.05,"L",1.2237,"FALSE","2014-11-05",3,0.05,1,2
1,13,"radial",0.15,0,"L",2.3186,"TRUE","2014-11-05",3,0.15,1,2
1,14,"linear",0.15,0,"L",3.1696,"TRUE","2014-11-05",3,0.15,1,2
1,15,"radial",0,0.1,"L",5.8547,"FALSE","2014-11-05",3,0.1,1,2
1,16,"radial",0.1,0,"R",1.9685,"FALSE","2014-11-05",3,0.1,1,2
2,1,"radial",0.2,0,"L",2.6525,"TRUE","2014-11-05",3,0.2,1,2
2,2,"linear",0.1,0,"R",5.3547,"FALSE","2014-11-05",3,0.1,1,2
2,3,"linear",0.2,0,"L",2.2789,"TRUE","2014-11-05",3,0.2,1,2
2,4,"linear",0.05,0,"R",7.1747,"FALSE","2014-11-05",3,0.05,1,2
2,5,"linear",0,0.2,"R",1.8521,"TRUE","2014-11-05",3,0.2,1,2
2,6,"radial",0,0.05,"L",3.5697,"FALSE","2014-11-05",3,0.05,1,2
2,7,"radial",0,0.2,"R",1.3766,"TRUE","2014-11-05",3,0.2,1,2
2,8,"linear",0,0.15,"R",3.4693,"TRUE","2014-11-05",3,0.15,1,2
2,9,"linear",0,0.1,"R",2.7192,"TRUE","2014-11-05",3,0.1,1,2
2,10,"radial",0,0.15,"R",1.1512,"TRUE","2014-11-05",3,0.15,1,2
2,11,"radial",0.05,0,"R",1.7515,"FALSE","2014-11-05",3,0.05,1,2
2,12,"radial",0.15,0,"R",2.0021,"FALSE","2014-11-05",3,0.15,1,2
2,13,"linear",0,0.05,"R",3.5197,"TRUE","2014-11-05",3,0.05,1,2
2,14,"radial",0,0.1,"R",4.7082,"TRUE","2014-11-05",3,0.1,1,2
2,15,"radial",0.1,0,"L",3.3362,"TRUE","2014-11-05",3,0.1,1,2
2,16,"linear",0.15,0,"L",2.769,"TRUE","2014-11-05",3,0.15,1,2
3,1,"radial",0.2,0,"L",0.91771,"TRUE","2014-11-05",3,0.2,1,2
3,2,"radial",0,0.05,"R",2.7358,"TRUE","2014-11-05",3,0.05,1,2
3,3,"radial",0,0.2,"R",1.2847,"TRUE","2014-11-05",3,0.2,1,2
3,4,"radial",0,0.15,"R",2.4025,"TRUE","2014-11-05",3,0.15,1,2
3,5,"linear",0.1,0,"L",2.1854,"TRUE","2014-11-05",3,0.1,1,2
3,6,"linear",0.2,0,"L",2.2911,"TRUE","2014-11-05",3,0.2,1,2
3,7,"linear",0.05,0,"L",4.7284,"TRUE","2014-11-05",3,0.05,1,2
3,8,"linear",0,0.2,"R",1.4528,"TRUE","2014-11-05",3,0.2,1,2
3,9,"linear",0,0.15,"R",0.93436,"TRUE","2014-11-05",3,0.15,1,2
3,10,"radial",0.05,0,"L",3.6031,"TRUE","2014-11-05",3,0.05,1,2
3,11,"radial",0.15,0,"L",0.91754,"TRUE","2014-11-05",3,0.15,1,2
3,12,"radial",0,0.1,"R",3.5865,"TRUE","2014-11-05",3,0.1,1,2
3,13,"radial",0.1,0,"R",2.5615,"FALSE","2014-11-05",3,0.1,1,2
3,14,"linear",0,0.1,"R",3.3198,"TRUE","2014-11-05",3,0.1,1,2
3,15,"linear",0,0.05,"L",5.8071,"FALSE","2014-11-05",3,0.05,1,2
3,16,"linear",0.15,0,"L",2.4863,"TRUE","2014-11-05",3,0.15,1,2
4,1,"linear",0.1,0,"L",2.2017,"TRUE","2014-11-05",3,0.1,1,2
4,2,"radial",0.2,0,"L",1.2688,"TRUE","2014-11-05",3,0.2,1,2
4,3,"radial",0,0.05,"R",5.523,"TRUE","2014-11-05",3,0.05,1,2
4,4,"linear",0.2,0,"L",1.1845,"TRUE","2014-11-05",3,0.2,1,2
4,5,"linear",0.05,0,"L",4.9248,"TRUE","2014-11-05",3,0.05,1,2
4,6,"radial",0,0.2,"R",0.95088,"TRUE","2014-11-05",3,0.2,1,2
4,7,"radial",0,0.15,"R",1.451,"TRUE","2014-11-05",3,0.15,1,2
4,8,"linear",0,0.2,"R",0.91755,"TRUE","2014-11-05",3,0.2,1,2
4,9,"linear",0,0.15,"R",2.3018,"TRUE","2014-11-05",3,0.15,1,2
4,10,"linear",0,0.1,"R",6.4558,"TRUE","2014-11-05",3,0.1,1,2
4,11,"radial",0.05,0,"R",7.59,"FALSE","2014-11-05",3,0.05,1,2
4,12,"linear",0,0.05,"L",0.89224,"FALSE","2014-11-05",3,0.05,1,2
4,13,"radial",0.15,0,"L",2.2519,"TRUE","2014-11-05",3,0.15,1,2
4,14,"linear",0.15,0,"L",1.8349,"TRUE","2014-11-05",3,0.15,1,2
4,15,"radial",0,0.1,"R",4.4373,"TRUE","2014-11-05",3,0.1,1,2
4,16,"radial",0.1,0,"L",3.1397,"TRUE","2014-11-05",3,0.1,1,2
5,1,"radial",0.2,0,"L",1.1186,"TRUE","2014-11-05",3,0.2,1,2
5,2,"linear",0.1,0,"L",3.5362,"TRUE","2014-11-05",3,0.1,1,2
5,3,"linear",0.2,0,"L",3.0064,"TRUE","2014-11-05",3,0.2,1,2
5,4,"radial",0,0.05,"R",7.16,"TRUE","2014-11-05",3,0.05,1,2
5,5,"radial",0,0.2,"R",0.8343,"TRUE","2014-11-05",3,0.2,1,2
5,6,"linear",0.05,0,"L",8.0737,"TRUE","2014-11-05",3,0.05,1,2
5,7,"linear",0,0.2,"R",1.551,"TRUE","2014-11-05",3,0.2,1,2
5,8,"radial",0,0.15,"R",0.68382,"TRUE","2014-11-05",3,0.15,1,2
5,9,"radial",0.05,0,"R",6.9424,"FALSE","2014-11-05",3,0.05,1,2
5,10,"radial",0.15,0,"L",3.0191,"TRUE","2014-11-05",3,0.15,1,2
5,11,"radial",0,0.1,"L",2.1186,"FALSE","2014-11-05",3,0.1,1,2
5,12,"radial",0.1,0,"L",3.8872,"TRUE","2014-11-05",3,0.1,1,2
5,13,"linear",0,0.15,"R",1.0051,"TRUE","2014-11-05",3,0.15,1,2
5,14,"linear",0,0.1,"R",0.92553,"TRUE","2014-11-05",3,0.1,1,2
5,15,"linear",0,0.05,"L",1.3681,"FALSE","2014-11-05",3,0.05,1,2
5,16,"linear",0.15,0,"L",2.6357,"TRUE","2014-11-05",3,0.15,1,2
1,1,"linear",0.1,0,"R",2.7189,"FALSE","2014-11-05",3,0.1,4,2
1,2,"linear",0.2,0,"L",2.2189,"TRUE","2014-11-05",3,0.2,4,2
1,3,"radial",0.2,0,"L",1.218,"TRUE","2014-11-05",3,0.2,4,2
1,4,"linear",0.05,0,"R",3.6534,"FALSE","2014-11-05",3,0.05,4,2
1,5,"linear",0,0.2,"R",2.4689,"TRUE","2014-11-05",3,0.2,4,2
1,6,"radial",0,0.05,"R",8.0904,"TRUE","2014-11-05",3,0.05,4,2
1,7,"radial",0,0.2,"R",0.81745,"TRUE","2014-11-05",3,0.2,4,2
1,8,"linear",0,0.15,"R",2.1376,"TRUE","2014-11-05",3,0.15,4,2
1,9,"radial",0,0.15,"R",1.0513,"TRUE","2014-11-05",3,0.15,4,2
1,10,"linear",0,0.1,"R",2.1352,"TRUE","2014-11-05",3,0.1,4,2
1,11,"radial",0.05,0,"R",2.0551,"FALSE","2014-11-05",3,0.05,4,2
1,12,"linear",0,0.05,"L",6.4813,"FALSE","2014-11-05",3,0.05,4,2
1,13,"radial",0.15,0,"L",0.73555,"TRUE","2014-11-05",3,0.15,4,2
1,14,"linear",0.15,0,"R",0.95087,"FALSE","2014-11-05",3,0.15,4,2
1,15,"radial",0,0.1,"R",3.5031,"TRUE","2014-11-05",3,0.1,4,2
1,16,"radial",0.1,0,"L",2.2911,"TRUE","2014-11-05",3,0.1,4,2
2,1,"radial",0.2,0,"L",0.81777,"TRUE","2014-11-05",3,0.2,4,2
2,2,"linear",0.1,0,"R",5.9654,"FALSE","2014-11-05",3,0.1,4,2
2,3,"linear",0.2,0,"L",1.1679,"TRUE","2014-11-05",3,0.2,4,2
2,4,"linear",0.05,0,"L",6.3723,"TRUE","2014-11-05",3,0.05,4,2
2,5,"linear",0,0.2,"R",1.0182,"TRUE","2014-11-05",3,0.2,4,2
2,6,"radial",0,0.05,"R",2.0193,"TRUE","2014-11-05",3,0.05,4,2
2,7,"radial",0,0.2,"R",1.1348,"TRUE","2014-11-05",3,0.2,4,2
2,8,"linear",0,0.15,"R",1.8686,"TRUE","2014-11-05",3,0.15,4,2
2,9,"linear",0,0.1,"R",1.2515,"TRUE","2014-11-05",3,0.1,4,2
2,10,"radial",0,0.15,"R",0.953,"TRUE","2014-11-05",3,0.15,4,2
2,11,"radial",0.05,0,"L",1.9199,"TRUE","2014-11-05",3,0.05,4,2
2,12,"radial",0.15,0,"L",1.3345,"TRUE","2014-11-05",3,0.15,4,2
2,13,"linear",0,0.05,"L",2.2185,"FALSE","2014-11-05",3,0.05,4,2
2,14,"radial",0,0.1,"R",1.7349,"TRUE","2014-11-05",3,0.1,4,2
2,15,"radial",0.1,0,"L",1.3346,"TRUE","2014-11-05",3,0.1,4,2
2,16,"linear",0.15,0,"L",2.3218,"TRUE","2014-11-05",3,0.15,4,2
3,1,"radial",0.2,0,"L",0.78415,"TRUE","2014-11-05",3,0.2,4,2
3,2,"radial",0,0.05,"R",4.2062,"TRUE","2014-11-05",3,0.05,4,2
3,3,"radial",0,0.2,"R",0.86738,"TRUE","2014-11-05",3,0.2,4,2
3,4,"radial",0,0.15,"R",1.3676,"TRUE","2014-11-05",3,0.15,4,2
3,5,"linear",0.1,0,"L",2.2517,"TRUE","2014-11-05",3,0.1,4,2
3,6,"linear",0.2,0,"L",0.76189,"TRUE","2014-11-05",3,0.2,4,2
3,7,"linear",0.05,0,"L",2.2355,"TRUE","2014-11-05",3,0.05,4,2
3,8,"linear",0,0.2,"L",0.93562,"FALSE","2014-11-05",3,0.2,4,2
3,9,"linear",0,0.15,"R",1.8018,"TRUE","2014-11-05",3,0.15,4,2
3,10,"radial",0.05,0,"L",2.7359,"TRUE","2014-11-05",3,0.05,4,2
3,11,"radial",0.15,0,"L",0.93423,"TRUE","2014-11-05",3,0.15,4,2
3,12,"radial",0,0.1,"R",2.0852,"TRUE","2014-11-05",3,0.1,4,2
3,13,"radial",0.1,0,"L",1.9347,"TRUE","2014-11-05",3,0.1,4,2
3,14,"linear",0,0.1,"R",2.9691,"TRUE","2014-11-05",3,0.1,4,2
3,15,"linear",0,0.05,"R",1.3679,"TRUE","2014-11-05",3,0.05,4,2
3,16,"linear",0.15,0,"L",2.5857,"TRUE","2014-11-05",3,0.15,4,2
4,1,"linear",0.1,0,"L",0.93428,"TRUE","2014-11-05",3,0.1,4,2
4,2,"radial",0.2,0,"L",0.9677,"TRUE","2014-11-05",3,0.2,4,2
4,3,"radial",0,0.05,"R",1.3848,"TRUE","2014-11-05",3,0.05,4,2
4,4,"linear",0.2,0,"L",1.2679,"TRUE","2014-11-05",3,0.2,4,2
4,5,"linear",0.05,0,"L",2.1352,"TRUE","2014-11-05",3,0.05,4,2
4,6,"radial",0,0.2,"R",1.2012,"TRUE","2014-11-05",3,0.2,4,2
4,7,"radial",0,0.15,"R",0.91759,"TRUE","2014-11-05",3,0.15,4,2
4,8,"linear",0,0.2,"R",1.1845,"TRUE","2014-11-05",3,0.2,4,2
4,9,"linear",0,0.15,"R",0.85133,"TRUE","2014-11-05",3,0.15,4,2
4,10,"linear",0,0.1,"R",1.5182,"TRUE","2014-11-05",3,0.1,4,2
4,11,"radial",0.05,0,"L",3.0238,"TRUE","2014-11-05",3,0.05,4,2
4,12,"linear",0,0.05,"L",2.5026,"FALSE","2014-11-05",3,0.05,4,2
4,13,"radial",0.15,0,"L",2.4689,"TRUE","2014-11-05",3,0.15,4,2
4,14,"linear",0.15,0,"L",1.2345,"TRUE","2014-11-05",3,0.15,4,2
4,15,"radial",0,0.1,"L",1.8517,"FALSE","2014-11-05",3,0.1,4,2
4,16,"radial",0.1,0,"L",2.6357,"TRUE","2014-11-05",3,0.1,4,2
5,1,"radial",0.2,0,"L",0.98471,"TRUE","2014-11-05",3,0.2,4,2
5,2,"linear",0.1,0,"R",2.8546,"FALSE","2014-11-05",3,0.1,4,2
5,3,"linear",0.2,0,"L",2.4688,"TRUE","2014-11-05",3,0.2,4,2
5,4,"radial",0,0.05,"R",3.0856,"TRUE","2014-11-05",3,0.05,4,2
5,5,"radial",0,0.2,"R",1.2847,"TRUE","2014-11-05",3,0.2,4,2
5,6,"linear",0.05,0,"L",1.2213,"TRUE","2014-11-05",3,0.05,4,2
5,7,"linear",0,0.2,"R",0.83846,"TRUE","2014-11-05",3,0.2,4,2
5,8,"radial",0,0.15,"R",0.75082,"TRUE","2014-11-05",3,0.15,4,2
5,9,"radial",0.05,0,"L",1.268,"TRUE","2014-11-05",3,0.05,4,2
5,10,"radial",0.15,0,"L",1.3179,"TRUE","2014-11-05",3,0.15,4,2
5,11,"radial",0,0.1,"L",3.6701,"FALSE","2014-11-05",3,0.1,4,2
5,12,"radial",0.1,0,"L",0.95086,"TRUE","2014-11-05",3,0.1,4,2
5,13,"linear",0,0.15,"R",1.0679,"TRUE","2014-11-05",3,0.15,4,2
5,14,"linear",0,0.1,"L",4.504,"FALSE","2014-11-05",3,0.1,4,2
5,15,"linear",0,0.05,"R",3.0911,"TRUE","2014-11-05",3,0.05,4,2
5,16,"linear",0.15,0,"L",1.1581,"TRUE","2014-11-05",3,0.15,4,2
1,1,"radial",0.15,0,"R",4.231,"FALSE","2014-11-05",3,0.15,2,8
1,2,"radial",0.1,0,"R",7.5729,"FALSE","2014-11-05",3,0.1,2,8
1,3,"radial",0,0.15,"R",5.2379,"TRUE","2014-11-05",3,0.15,2,8
1,4,"radial",0,0.2,"R",2.1353,"TRUE","2014-11-05",3,0.2,2,8
1,5,"radial",0.05,0,"R",9.1411,"FALSE","2014-11-05",3,0.05,2,8
1,6,"linear",0.2,0,"L",3.8925,"TRUE","2014-11-05",3,0.2,2,8
1,7,"linear",0,0.1,"L",6.9774,"FALSE","2014-11-05",3,0.1,2,8
1,8,"linear",0.15,0,"L",8.6903,"TRUE","2014-11-05",3,0.15,2,8
1,9,"radial",0,0.1,"R",2.9362,"TRUE","2014-11-05",3,0.1,2,8
1,10,"linear",0.05,0,"R",8.6743,"FALSE","2014-11-05",3,0.05,2,8
1,11,"radial",0,0.05," ",0,"0","2014-11-05",3,0.05,2,8
1,12,"radial",0.2,0,"L",0.93446,"TRUE","2014-11-05",3,0.2,2,8
1,13,"linear",0,0.15,"L",5.1546,"FALSE","2014-11-05",3,0.15,2,8
1,14,"linear",0,0.2,"R",5.3542,"TRUE","2014-11-05",3,0.2,2,8
1,15,"linear",0.1,0,"L",9.8751,"TRUE","2014-11-05",3,0.1,2,8
1,16,"linear",0,0.05,"R",3.5701,"TRUE","2014-11-05",3,0.05,2,8
2,1,"linear",0.2,0,"R",2.4523,"FALSE","2014-11-05",3,0.2,2,8
2,2,"radial",0.15,0,"L",1.5848,"TRUE","2014-11-05",3,0.15,2,8
2,3,"linear",0,0.1,"L",3.9808,"FALSE","2014-11-05",3,0.1,2,8
2,4,"radial",0.1,0,"L",10.1596,"TRUE","2014-11-05",3,0.1,2,8
2,5,"radial",0,0.15,"R",5.4878,"TRUE","2014-11-05",3,0.15,2,8
2,6,"linear",0.15,0,"L",6.1219,"TRUE","2014-11-05",3,0.15,2,8
2,7,"radial",0,0.2,"R",2.0349,"TRUE","2014-11-05",3,0.2,2,8
2,8,"radial",0.05,0,"R",3.0761,"FALSE","2014-11-05",3,0.05,2,8
2,9,"radial",0,0.1,"R",3.4416,"TRUE","2014-11-05",3,0.1,2,8
2,10,"linear",0.05,0," ",0,"0","2014-11-05",3,0.05,2,8
2,11,"radial",0,0.05,"R",2.6274,"TRUE","2014-11-05",3,0.05,2,8
2,12,"linear",0,0.15,"R",2.0685,"TRUE","2014-11-05",3,0.15,2,8
2,13,"linear",0,0.2,"R",1.6857,"TRUE","2014-11-05",3,0.2,2,8
2,14,"linear",0.1,0,"L",4.637,"TRUE","2014-11-05",3,0.1,2,8
2,15,"radial",0.2,0,"L",0.93573,"TRUE","2014-11-05",3,0.2,2,8
2,16,"linear",0,0.05,"R",5.3215,"TRUE","2014-11-05",3,0.05,2,8
3,1,"radial",0.15,0,"L",2.0541,"TRUE","2014-11-05",3,0.15,2,8
3,2,"radial",0.1,0,"R",5.6976,"FALSE","2014-11-05",3,0.1,2,8
3,3,"radial",0,0.15,"R",4.4702,"TRUE","2014-11-05",3,0.15,2,8
3,4,"radial",0,0.2,"R",1.0189,"TRUE","2014-11-05",3,0.2,2,8
3,5,"radial",0.05,0,"L",4.3872,"TRUE","2014-11-05",3,0.05,2,8
3,6,"radial",0,0.1,"R",4.3875,"TRUE","2014-11-05",3,0.1,2,8
3,7,"radial",0,0.05,"L",2.0352,"FALSE","2014-11-05",3,0.05,2,8
3,8,"linear",0.2,0,"L",4.7618,"TRUE","2014-11-05",3,0.2,2,8
3,9,"linear",0,0.1,"R",5.3944,"TRUE","2014-11-05",3,0.1,2,8
3,10,"radial",0.2,0,"L",3.2551,"TRUE","2014-11-05",3,0.2,2,8
3,11,"linear",0.15,0,"L",2.7694,"TRUE","2014-11-05",3,0.15,2,8
3,12,"linear",0.05,0,"R",2.7359,"FALSE","2014-11-05",3,0.05,2,8
3,13,"linear",0,0.15,"R",4.0035,"TRUE","2014-11-05",3,0.15,2,8
3,14,"linear",0,0.2,"R",1.0679,"TRUE","2014-11-05",3,0.2,2,8
3,15,"linear",0.1,0,"L",2.2016,"TRUE","2014-11-05",3,0.1,2,8
3,16,"linear",0,0.05,"R",8.0568,"TRUE","2014-11-05",3,0.05,2,8
4,1,"radial",0.15,0,"L",1.4346,"TRUE","2014-11-05",3,0.15,2,8
4,2,"linear",0.2,0,"L",1.0677,"TRUE","2014-11-05",3,0.2,2,8
4,3,"radial",0.1,0,"L",2.9359,"TRUE","2014-11-05",3,0.1,2,8
4,4,"radial",0,0.15,"R",2.9361,"TRUE","2014-11-05",3,0.15,2,8
4,5,"linear",0,0.1,"L",3.19,"FALSE","2014-11-05",3,0.1,2,8
4,6,"radial",0,0.2,"R",1.2864,"TRUE","2014-11-05",3,0.2,2,8
4,7,"radial",0.05,0,"R",4.3872,"FALSE","2014-11-05",3,0.05,2,8
4,8,"linear",0.15,0,"L",2.7044,"TRUE","2014-11-05",3,0.15,2,8
4,9,"radial",0,0.1,"R",1.5274,"TRUE","2014-11-05",3,0.1,2,8
4,10,"radial",0,0.05,"R",6.2218,"TRUE","2014-11-05",3,0.05,2,8
4,11,"radial",0.2,0,"L",0.91758,"TRUE","2014-11-05",3,0.2,2,8
4,12,"linear",0.05,0,"L",5.3879,"TRUE","2014-11-05",3,0.05,2,8
4,13,"linear",0,0.15,"R",6.1386,"TRUE","2014-11-05",3,0.15,2,8
4,14,"linear",0,0.2,"R",1.4194,"TRUE","2014-11-05",3,0.2,2,8
4,15,"linear",0.1,0,"L",1.9522,"TRUE","2014-11-05",3,0.1,2,8
4,16,"linear",0,0.05,"L",9.241,"FALSE","2014-11-05",3,0.05,2,8
5,1,"linear",0.2,0,"L",1.4181,"TRUE","2014-11-05",3,0.2,2,8
5,2,"radial",0.15,0,"L",1.468,"TRUE","2014-11-05",3,0.15,2,8
5,3,"linear",0,0.1,"R",1.7682,"TRUE","2014-11-05",3,0.1,2,8
5,4,"radial",0.1,0,"L",2.253,"TRUE","2014-11-05",3,0.1,2,8
5,5,"linear",0.15,0,"L",0.96757,"TRUE","2014-11-05",3,0.15,2,8
5,6,"radial",0,0.15,"R",2.0852,"TRUE","2014-11-05",3,0.15,2,8
5,7,"radial",0,0.2,"R",1.0377,"TRUE","2014-11-05",3,0.2,2,8
5,8,"radial",0.05,0,"L",1.9014,"TRUE","2014-11-05",3,0.05,2,8
5,9,"linear",0.05,0,"R",2.1547,"FALSE","2014-11-05",3,0.05,2,8
5,10,"linear",0,0.15,"L",0.7842,"FALSE","2014-11-05",3,0.15,2,8
5,11,"linear",0,0.2,"R",0.8676,"TRUE","2014-11-05",3,0.2,2,8
5,12,"radial",0,0.1,"R",3.2195,"TRUE","2014-11-05",3,0.1,2,8
5,13,"radial",0,0.05,"R",4.8706,"TRUE","2014-11-05",3,0.05,2,8
5,14,"linear",0.1,0,"L",7.3604,"TRUE","2014-11-05",3,0.1,2,8
5,15,"radial",0.2,0,"L",1.3572,"TRUE","2014-11-05",3,0.2,2,8
5,16,"linear",0,0.05,"L",2.6206,"FALSE","2014-11-05",3,0.05,2,8
1,1,"radial",0.15,0,"R",2.4521,"FALSE","2014-11-05",3,0.15,3,8
1,2,"radial",0.1,0,"L",2.0351,"TRUE","2014-11-05",3,0.1,3,8
1,3,"radial",0,0.15,"R",0.9009,"TRUE","2014-11-05",3,0.15,3,8
1,4,"radial",0,0.2,"R",0.98441,"TRUE","2014-11-05",3,0.2,3,8
1,5,"radial",0.05,0,"R",2.3583,"FALSE","2014-11-05",3,0.05,3,8
1,6,"linear",0.2,0,"R",5.2542,"FALSE","2014-11-05",3,0.2,3,8
1,7,"linear",0,0.1,"R",3.7867,"TRUE","2014-11-05",3,0.1,3,8
1,8,"linear",0.15,0,"L",1.7682,"TRUE","2014-11-05",3,0.15,3,8
1,9,"radial",0,0.1,"R",6.539,"TRUE","2014-11-05",3,0.1,3,8
1,10,"linear",0.05,0,"L",2.002,"TRUE","2014-11-05",3,0.05,3,8
1,11,"radial",0,0.05,"R",2.0351,"TRUE","2014-11-05",3,0.05,3,8
1,12,"radial",0.2,0,"L",0.63959,"TRUE","2014-11-05",3,0.2,3,8
1,13,"linear",0,0.15,"L",2.169,"FALSE","2014-11-05",3,0.15,3,8
1,14,"linear",0,0.2,"R",1.0178,"TRUE","2014-11-05",3,0.2,3,8
1,15,"linear",0.1,0,"L",9.8084,"TRUE","2014-11-05",3,0.1,3,8
1,16,"linear",0,0.05,"L",3.7703,"FALSE","2014-11-05",3,0.05,3,8
2,1,"linear",0.2,0,"L",0.78414,"TRUE","2014-11-05",3,0.2,3,8
2,2,"radial",0.15,0,"L",1.4176,"TRUE","2014-11-05",3,0.15,3,8
2,3,"linear",0,0.1,"R",5.4048,"TRUE","2014-11-05",3,0.1,3,8
2,4,"radial",0.1,0,"L",2.0516,"TRUE","2014-11-05",3,0.1,3,8
2,5,"radial",0,0.15,"R",1.3843,"TRUE","2014-11-05",3,0.15,3,8
2,6,"linear",0.15,0,"L",3.6865,"TRUE","2014-11-05",3,0.15,3,8
2,7,"radial",0,0.2,"R",0.66927,"TRUE","2014-11-05",3,0.2,3,8
2,8,"radial",0.05,0,"L",5.4882,"TRUE","2014-11-05",3,0.05,3,8
2,9,"radial",0,0.1,"R",1.9217,"TRUE","2014-11-05",3,0.1,3,8
2,10,"linear",0.05,0,"R",2.7191,"FALSE","2014-11-05",3,0.05,3,8
2,11,"radial",0,0.05,"R",3.8407,"TRUE","2014-11-05",3,0.05,3,8
2,12,"linear",0,0.15,"R",2.619,"TRUE","2014-11-05",3,0.15,3,8
2,13,"linear",0,0.2,"R",0.88457,"TRUE","2014-11-05",3,0.2,3,8
2,14,"linear",0.1,0,"L",2.1056,"TRUE","2014-11-05",3,0.1,3,8
2,15,"radial",0.2,0,"L",0.75096,"TRUE","2014-11-05",3,0.2,3,8
2,16,"linear",0,0.05,"R",1.3198,"TRUE","2014-11-05",3,0.05,3,8
3,1,"radial",0.15,0,"L",0.88426,"TRUE","2014-11-05",3,0.15,3,8
3,2,"radial",0.1,0,"L",1.835,"TRUE","2014-11-05",3,0.1,3,8
3,3,"radial",0,0.15,"R",0.98423,"TRUE","2014-11-05",3,0.15,3,8
3,4,"radial",0,0.2,"R",1.0344,"TRUE","2014-11-05",3,0.2,3,8
3,5,"radial",0.05,0,"L",1.1692,"TRUE","2014-11-05",3,0.05,3,8
3,6,"radial",0,0.1,"R",1.7353,"TRUE","2014-11-05",3,0.1,3,8
3,7,"radial",0,0.05,"R",1.9192,"TRUE","2014-11-05",3,0.05,3,8
3,8,"linear",0.2,0,"L",1.1181,"TRUE","2014-11-05",3,0.2,3,8
3,9,"linear",0,0.1,"R",1.5684,"TRUE","2014-11-05",3,0.1,3,8
3,10,"radial",0.2,0,"L",1.2681,"TRUE","2014-11-05",3,0.2,3,8
3,11,"linear",0.15,0,"L",1.1009,"TRUE","2014-11-05",3,0.15,3,8
3,12,"linear",0.05,0,"L",1.835,"TRUE","2014-11-05",3,0.05,3,8
3,13,"linear",0,0.15,"R",1.2179,"TRUE","2014-11-05",3,0.15,3,8
3,14,"linear",0,0.2,"R",1.2512,"TRUE","2014-11-05",3,0.2,3,8
3,15,"linear",0.1,0,"L",2.2851,"TRUE","2014-11-05",3,0.1,3,8
3,16,"linear",0,0.05,"R",2.8692,"TRUE","2014-11-05",3,0.05,3,8
4,1,"radial",0.15,0,"L",0.75104,"TRUE","2014-11-05",3,0.15,3,8
4,2,"linear",0.2,0,"L",0.91753,"TRUE","2014-11-05",3,0.2,3,8
4,3,"radial",0.1,0,"L",2.2018,"TRUE","2014-11-05",3,0.1,3,8
4,4,"radial",0,0.15,"L",1.1018,"FALSE","2014-11-05",3,0.15,3,8
4,5,"linear",0,0.1,"L",3.9535,"FALSE","2014-11-05",3,0.1,3,8
4,6,"radial",0,0.2,"R",1.2174,"TRUE","2014-11-05",3,0.2,3,8
4,7,"radial",0.05,0,"L",0.75114,"TRUE","2014-11-05",3,0.05,3,8
4,8,"linear",0.15,0,"L",0.80108,"TRUE","2014-11-05",3,0.15,3,8
4,9,"radial",0,0.1,"R",2.9693,"TRUE","2014-11-05",3,0.1,3,8
4,10,"radial",0,0.05,"L",4.4042,"FALSE","2014-11-05",3,0.05,3,8
4,11,"radial",0.2,0,"L",0.7674,"TRUE","2014-11-05",3,0.2,3,8
4,12,"linear",0.05,0,"R",1.4412,"FALSE","2014-11-05",3,0.05,3,8
4,13,"linear",0,0.15,"R",1.5015,"TRUE","2014-11-05",3,0.15,3,8
4,14,"linear",0,0.2,"R",0.61716,"TRUE","2014-11-05",3,0.2,3,8
4,15,"linear",0.1,0,"L",4.8606,"TRUE","2014-11-05",3,0.1,3,8
4,16,"linear",0,0.05,"L",6.7056,"FALSE","2014-11-05",3,0.05,3,8
5,1,"linear",0.2,0,"L",0.88445,"TRUE","2014-11-05",3,0.2,3,8
5,2,"radial",0.15,0,"L",1.1847,"TRUE","2014-11-05",3,0.15,3,8
5,3,"linear",0,0.1,"R",2.0549,"TRUE","2014-11-05",3,0.1,3,8
5,4,"radial",0.1,0,"L",0.66742,"TRUE","2014-11-05",3,0.1,3,8
5,5,"linear",0.15,0,"L",0.73401,"TRUE","2014-11-05",3,0.15,3,8
5,6,"radial",0,0.15,"R",1.1512,"TRUE","2014-11-05",3,0.15,3,8
5,7,"radial",0,0.2,"R",0.71731,"TRUE","2014-11-05",3,0.2,3,8
5,8,"radial",0.05,0,"L",1.2715,"TRUE","2014-11-05",3,0.05,3,8
5,9,"linear",0.05,0,"R",3.6564,"FALSE","2014-11-05",3,0.05,3,8
5,10,"linear",0,0.15,"R",1.4177,"TRUE","2014-11-05",3,0.15,3,8
5,11,"linear",0,0.2,"R",0.61684,"TRUE","2014-11-05",3,0.2,3,8
5,12,"radial",0,0.1,"R",1.2867,"TRUE","2014-11-05",3,0.1,3,8
5,13,"radial",0,0.05,"L",4.8749,"FALSE","2014-11-05",3,0.05,3,8
5,14,"linear",0.1,0,"L",1.4177,"TRUE","2014-11-05",3,0.1,3,8
5,15,"radial",0.2,0,"L",0.56884,"TRUE","2014-11-05",3,0.2,3,8
5,16,"linear",0,0.05,"R",1.3348,"TRUE","2014-11-05",3,0.05,3,8
1,1,"linear",0.1,0,"R",9.6475,"FALSE","2014-11-11",4,0.1,1,2
1,2,"linear",0.2,0,"L",8.7408,"TRUE","2014-11-11",4,0.2,1,2
1,3,"radial",0.2,0," ",0,"0","2014-11-11",4,0.2,1,2
1,4,"linear",0.05,0,"R",4.3872,"FALSE","2014-11-11",4,0.05,1,2
1,5,"linear",0,0.2,"L",7.3289,"FALSE","2014-11-11",4,0.2,1,2
1,6,"radial",0,0.05,"L",6.6725,"FALSE","2014-11-11",4,0.05,1,2
1,7,"radial",0,0.2,"R",2.4855,"TRUE","2014-11-11",4,0.2,1,2
1,8,"linear",0,0.15,"R",6.5053,"TRUE","2014-11-11",4,0.15,1,2
1,9,"radial",0,0.15,"R",3.4527,"TRUE","2014-11-11",4,0.15,1,2
1,10,"linear",0,0.1,"L",5.1876,"FALSE","2014-11-11",4,0.1,1,2
1,11,"radial",0.05,0,"R",6.2552,"FALSE","2014-11-11",4,0.05,1,2
1,12,"linear",0,0.05,"L",7.3895,"FALSE","2014-11-11",4,0.05,1,2
1,13,"radial",0.15,0,"L",4.4201,"TRUE","2014-11-11",4,0.15,1,2
1,14,"linear",0.15,0,"R",4.7041,"FALSE","2014-11-11",4,0.15,1,2
1,15,"radial",0,0.1,"R",3.5197,"TRUE","2014-11-11",4,0.1,1,2
1,16,"radial",0.1,0,"R",6.4555,"FALSE","2014-11-11",4,0.1,1,2
2,1,"radial",0.2,0,"L",1.5849,"TRUE","2014-11-11",4,0.2,1,2
2,2,"linear",0.1,0,"L",3.6727,"TRUE","2014-11-11",4,0.1,1,2
2,3,"linear",0.2,0,"R",3.8031,"FALSE","2014-11-11",4,0.2,1,2
2,4,"linear",0.05,0,"L",6.1219,"TRUE","2014-11-11",4,0.05,1,2
2,5,"linear",0,0.2,"R",1.7518,"TRUE","2014-11-11",4,0.2,1,2
2,6,"radial",0,0.05,"L",2.8691,"FALSE","2014-11-11",4,0.05,1,2
2,7,"radial",0,0.2,"R",2.6872,"TRUE","2014-11-11",4,0.2,1,2
2,8,"linear",0,0.15,"L",5.5216,"FALSE","2014-11-11",4,0.15,1,2
2,9,"linear",0,0.1,"R",4.354,"TRUE","2014-11-11",4,0.1,1,2
2,10,"radial",0,0.15,"R",2.0186,"TRUE","2014-11-11",4,0.15,1,2
2,11,"radial",0.05,0,"R",6.5553,"FALSE","2014-11-11",4,0.05,1,2
2,12,"radial",0.15,0,"L",1.5515,"TRUE","2014-11-11",4,0.15,1,2
2,13,"linear",0,0.05,"R",5.1042,"TRUE","2014-11-11",4,0.05,1,2
2,14,"radial",0,0.1,"R",1.7014,"TRUE","2014-11-11",4,0.1,1,2
2,15,"radial",0.1,0,"R",7.2227,"FALSE","2014-11-11",4,0.1,1,2
2,16,"linear",0.15,0,"L",4.2205,"TRUE","2014-11-11",4,0.15,1,2
3,1,"radial",0.2,0,"L",3.2196,"TRUE","2014-11-11",4,0.2,1,2
3,2,"radial",0,0.05,"L",5.5552,"FALSE","2014-11-11",4,0.05,1,2
3,3,"radial",0,0.2,"R",2.085,"TRUE","2014-11-11",4,0.2,1,2
3,4,"radial",0,0.15,"R",1.3115,"TRUE","2014-11-11",4,0.15,1,2
3,5,"linear",0.1,0,"R",2.719,"FALSE","2014-11-11",4,0.1,1,2
3,6,"linear",0.2,0,"L",3.353,"TRUE","2014-11-11",4,0.2,1,2
3,7,"linear",0.05,0,"L",4.5537,"TRUE","2014-11-11",4,0.05,1,2
3,8,"linear",0,0.2,"R",2.2031,"TRUE","2014-11-11",4,0.2,1,2
3,9,"linear",0,0.15,"R",2.7229,"TRUE","2014-11-11",4,0.15,1,2
3,10,"radial",0.05,0,"L",6.8439,"TRUE","2014-11-11",4,0.05,1,2
3,11,"radial",0.15,0,"L",4.8545,"TRUE","2014-11-11",4,0.15,1,2
3,12,"radial",0,0.1,"L",2.4855,"FALSE","2014-11-11",4,0.1,1,2
3,13,"radial",0.1,0,"L",4.5925,"TRUE","2014-11-11",4,0.1,1,2
3,14,"linear",0,0.1,"R",2.5522,"TRUE","2014-11-11",4,0.1,1,2
3,15,"linear",0,0.05,"R",5.9382,"TRUE","2014-11-11",4,0.05,1,2
3,16,"linear",0.15,0,"L",3.4529,"TRUE","2014-11-11",4,0.15,1,2
4,1,"linear",0.1,0,"L",4.4203,"TRUE","2014-11-11",4,0.1,1,2
4,2,"radial",0.2,0,"L",1.4847,"TRUE","2014-11-11",4,0.2,1,2
4,3,"radial",0,0.05,"R",3.536,"TRUE","2014-11-11",4,0.05,1,2
4,4,"linear",0.2,0,"L",3.7554,"TRUE","2014-11-11",4,0.2,1,2
4,5,"linear",0.05,0,"L",5.9886,"TRUE","2014-11-11",4,0.05,1,2
4,6,"radial",0,0.2,"R",1.5181,"TRUE","2014-11-11",4,0.2,1,2
4,7,"radial",0,0.15,"R",1.3846,"TRUE","2014-11-11",4,0.15,1,2
4,8,"linear",0,0.2,"R",1.2846,"TRUE","2014-11-11",4,0.2,1,2
4,9,"linear",0,0.15,"R",1.2844,"TRUE","2014-11-11",4,0.15,1,2
4,10,"linear",0,0.1,"R",4.0536,"TRUE","2014-11-11",4,0.1,1,2
4,11,"radial",0.05,0,"L",2.6691,"TRUE","2014-11-11",4,0.05,1,2
4,12,"linear",0,0.05,"R",5.0213,"TRUE","2014-11-11",4,0.05,1,2
4,13,"radial",0.15,0,"L",3.9779,"TRUE","2014-11-11",4,0.15,1,2
4,14,"linear",0.15,0,"L",6.1219,"TRUE","2014-11-11",4,0.15,1,2
4,15,"radial",0,0.1,"R",4.5707,"TRUE","2014-11-11",4,0.1,1,2
4,16,"radial",0.1,0,"R",2.1211,"FALSE","2014-11-11",4,0.1,1,2
5,1,"radial",0.2,0,"L",2.5356,"TRUE","2014-11-11",4,0.2,1,2
5,2,"linear",0.1,0,"L",4.4871,"TRUE","2014-11-11",4,0.1,1,2
5,3,"linear",0.2,0,"L",1.6847,"TRUE","2014-11-11",4,0.2,1,2
5,4,"radial",0,0.05,"L",3.453,"FALSE","2014-11-11",4,0.05,1,2
5,5,"radial",0,0.2,"R",0.88565,"TRUE","2014-11-11",4,0.2,1,2
5,6,"linear",0.05,0,"L",4.4039,"TRUE","2014-11-11",4,0.05,1,2
5,7,"linear",0,0.2,"R",1.7351,"TRUE","2014-11-11",4,0.2,1,2
5,8,"radial",0,0.15,"R",1.2177,"TRUE","2014-11-11",4,0.15,1,2
5,9,"radial",0.05,0,"L",6.1741,"TRUE","2014-11-11",4,0.05,1,2
5,10,"radial",0.15,0,"L",2.828,"TRUE","2014-11-11",4,0.15,1,2
5,11,"radial",0,0.1,"R",5.4886,"TRUE","2014-11-11",4,0.1,1,2
5,12,"radial",0.1,0,"R",1.5347,"FALSE","2014-11-11",4,0.1,1,2
5,13,"linear",0,0.15,"R",2.0051,"TRUE","2014-11-11",4,0.15,1,2
5,14,"linear",0,0.1,"R",5.5882,"TRUE","2014-11-11",4,0.1,1,2
5,15,"linear",0,0.05,"R",3.895,"TRUE","2014-11-11",4,0.05,1,2
5,16,"linear",0.15,0,"L",2.0351,"TRUE","2014-11-11",4,0.15,1,2
1,1,"linear",0.1,0,"L",4.3371,"TRUE","2014-11-11",4,0.1,2,2
1,2,"linear",0.2,0,"L",2.5022,"TRUE","2014-11-11",4,0.2,2,2
1,3,"radial",0.2,0,"L",3.6901,"TRUE","2014-11-11",4,0.2,2,2
1,4,"linear",0.05,0,"L",5.2602,"TRUE","2014-11-11",4,0.05,2,2
1,5,"linear",0,0.2,"R",2.3858,"TRUE","2014-11-11",4,0.2,2,2
1,6,"radial",0,0.05,"R",2.7024,"TRUE","2014-11-11",4,0.05,2,2
1,7,"radial",0,0.2,"R",0.93427,"TRUE","2014-11-11",4,0.2,2,2
1,8,"linear",0,0.15,"R",2.4858,"TRUE","2014-11-11",4,0.15,2,2
1,9,"radial",0,0.15,"R",2.4196,"TRUE","2014-11-11",4,0.15,2,2
1,10,"linear",0,0.1,"R",2.2018,"TRUE","2014-11-11",4,0.1,2,2
1,11,"radial",0.05,0,"R",2.8109,"FALSE","2014-11-11",4,0.05,2,2
1,12,"linear",0,0.05,"L",3.3531,"FALSE","2014-11-11",4,0.05,2,2
1,13,"radial",0.15,0,"L",2.519,"TRUE","2014-11-11",4,0.15,2,2
1,14,"linear",0.15,0,"L",1.468,"TRUE","2014-11-11",4,0.15,2,2
1,15,"radial",0,0.1,"R",4.2553,"TRUE","2014-11-11",4,0.1,2,2
1,16,"radial",0.1,0,"R",2.5524,"FALSE","2014-11-11",4,0.1,2,2
2,1,"radial",0.2,0,"L",0.98435,"TRUE","2014-11-11",4,0.2,2,2
2,2,"linear",0.1,0,"L",7.1778,"TRUE","2014-11-11",4,0.1,2,2
2,3,"linear",0.2,0,"L",2.3023,"TRUE","2014-11-11",4,0.2,2,2
2,4,"linear",0.05,0,"R",5.2379,"FALSE","2014-11-11",4,0.05,2,2
2,5,"linear",0,0.2,"R",1.8183,"TRUE","2014-11-11",4,0.2,2,2
2,6,"radial",0,0.05,"R",2.9523,"TRUE","2014-11-11",4,0.05,2,2
2,7,"radial",0,0.2,"R",1.2545,"TRUE","2014-11-11",4,0.2,2,2
2,8,"linear",0,0.15,"R",1.4349,"TRUE","2014-11-11",4,0.15,2,2
2,9,"linear",0,0.1,"R",2.0185,"TRUE","2014-11-11",4,0.1,2,2
2,10,"radial",0,0.15,"R",2.2526,"TRUE","2014-11-11",4,0.15,2,2
2,11,"radial",0.05,0,"R",4.5058,"FALSE","2014-11-11",4,0.05,2,2
2,12,"radial",0.15,0,"L",5.3579,"TRUE","2014-11-11",4,0.15,2,2
2,13,"linear",0,0.05,"R",5.4543,"TRUE","2014-11-11",4,0.05,2,2
2,14,"radial",0,0.1,"R",2.0242,"TRUE","2014-11-11",4,0.1,2,2
2,15,"radial",0.1,0,"R",4.2037,"FALSE","2014-11-11",4,0.1,2,2
2,16,"linear",0.15,0,"R",4.1869,"FALSE","2014-11-11",4,0.15,2,2
3,1,"radial",0.2,0,"L",5.2213,"TRUE","2014-11-11",4,0.2,2,2
3,2,"radial",0,0.05,"R",5.4214,"TRUE","2014-11-11",4,0.05,2,2
3,3,"radial",0,0.2,"R",0.91785,"TRUE","2014-11-11",4,0.2,2,2
3,4,"radial",0,0.15,"R",2.1685,"TRUE","2014-11-11",4,0.15,2,2
3,5,"linear",0.1,0,"L",3.3195,"TRUE","2014-11-11",4,0.1,2,2
3,6,"linear",0.2,0,"L",2.569,"TRUE","2014-11-11",4,0.2,2,2
3,7,"linear",0.05,0,"L",6.3723,"TRUE","2014-11-11",4,0.05,2,2
3,8,"linear",0,0.2,"R",0.98436,"TRUE","2014-11-11",4,0.2,2,2
3,9,"linear",0,0.15,"R",2.4854,"TRUE","2014-11-11",4,0.15,2,2
3,10,"radial",0.05,0,"R",4.6873,"FALSE","2014-11-11",4,0.05,2,2
3,11,"radial",0.15,0,"L",4.3062,"TRUE","2014-11-11",4,0.15,2,2
3,12,"radial",0,0.1,"R",3.5697,"TRUE","2014-11-11",4,0.1,2,2
3,13,"radial",0.1,0,"L",3.0608,"TRUE","2014-11-11",4,0.1,2,2
3,14,"linear",0,0.1,"R",2.052,"TRUE","2014-11-11",4,0.1,2,2
3,15,"linear",0,0.05,"R",4.4042,"TRUE","2014-11-11",4,0.05,2,2
3,16,"linear",0.15,0,"L",2.5189,"TRUE","2014-11-11",4,0.15,2,2
4,1,"linear",0.1,0,"L",2.7027,"TRUE","2014-11-11",4,0.1,2,2
4,2,"radial",0.2,0,"L",2.5023,"TRUE","2014-11-11",4,0.2,2,2
4,3,"radial",0,0.05,"R",2.8526,"TRUE","2014-11-11",4,0.05,2,2
4,4,"linear",0.2,0,"L",2.4021,"TRUE","2014-11-11",4,0.2,2,2
4,5,"linear",0.05,0,"L",5.0878,"TRUE","2014-11-11",4,0.05,2,2
4,6,"radial",0,0.2,"R",0.93437,"TRUE","2014-11-11",4,0.2,2,2
4,7,"radial",0,0.15,"R",0.86768,"TRUE","2014-11-11",4,0.15,2,2
4,8,"linear",0,0.2,"R",1.1221,"TRUE","2014-11-11",4,0.2,2,2
4,9,"linear",0,0.15,"R",2.3022,"TRUE","2014-11-11",4,0.15,2,2
4,10,"linear",0,0.1,"R",1.8017,"TRUE","2014-11-11",4,0.1,2,2
4,11,"radial",0.05,0,"R",2.7724,"FALSE","2014-11-11",4,0.05,2,2
4,12,"linear",0,0.05,"R",3.0191,"TRUE","2014-11-11",4,0.05,2,2
4,13,"radial",0.15,0,"L",2.0684,"TRUE","2014-11-11",4,0.15,2,2
4,14,"linear",0.15,0,"L",2.2241,"TRUE","2014-11-11",4,0.15,2,2
4,15,"radial",0,0.1,"R",2.6185,"TRUE","2014-11-11",4,0.1,2,2
4,16,"radial",0.1,0,"R",2.7023,"FALSE","2014-11-11",4,0.1,2,2
5,1,"radial",0.2,0,"L",1.1177,"TRUE","2014-11-11",4,0.2,2,2
5,2,"linear",0.1,0,"L",2.2352,"TRUE","2014-11-11",4,0.1,2,2
5,3,"linear",0.2,0,"L",1.0511,"TRUE","2014-11-11",4,0.2,2,2
5,4,"radial",0,0.05,"L",3.7698,"FALSE","2014-11-11",4,0.05,2,2
5,5,"radial",0,0.2,"R",0.90138,"TRUE","2014-11-11",4,0.2,2,2
5,6,"linear",0.05,0,"R",3.7067,"FALSE","2014-11-11",4,0.05,2,2
5,7,"linear",0,0.2,"R",3.2863,"TRUE","2014-11-11",4,0.2,2,2
5,8,"radial",0,0.15,"R",1.4179,"TRUE","2014-11-11",4,0.15,2,2
5,9,"radial",0.05,0,"L",4.926,"TRUE","2014-11-11",4,0.05,2,2
5,10,"radial",0.15,0,"L",3.5201,"TRUE","2014-11-11",4,0.15,2,2
5,11,"radial",0,0.1,"R",1.952,"TRUE","2014-11-11",4,0.1,2,2
5,12,"radial",0.1,0,"R",3.8406,"FALSE","2014-11-11",4,0.1,2,2
5,13,"linear",0,0.15,"R",1.1616,"TRUE","2014-11-11",4,0.15,2,2
5,14,"linear",0,0.1,"R",1.2196,"TRUE","2014-11-11",4,0.1,2,2
5,15,"linear",0,0.05,"R",5.4884,"TRUE","2014-11-11",4,0.05,2,2
5,16,"linear",0.15,0,"L",2.1183,"TRUE","2014-11-11",4,0.15,2,2
1,1,"radial",0.15,0,"L",2.2684,"TRUE","2014-11-11",4,0.15,3,8
1,2,"radial",0.1,0,"L",1.9686,"TRUE","2014-11-11",4,0.1,3,8
1,3,"radial",0,0.15,"R",3.154,"TRUE","2014-11-11",4,0.15,3,8
1,4,"radial",0,0.2,"R",1.4954,"TRUE","2014-11-11",4,0.2,3,8
1,5,"radial",0.05,0,"R",3.0195,"FALSE","2014-11-11",4,0.05,3,8
1,6,"linear",0.2,0,"L",2.5523,"TRUE","2014-11-11",4,0.2,3,8
1,7,"linear",0,0.1,"L",1.7851,"FALSE","2014-11-11",4,0.1,3,8
1,8,"linear",0.15,0,"L",5.2049,"TRUE","2014-11-11",4,0.15,3,8
1,9,"radial",0,0.1,"R",2.1351,"TRUE","2014-11-11",4,0.1,3,8
1,10,"linear",0.05,0,"L",4.8374,"TRUE","2014-11-11",4,0.05,3,8
1,11,"radial",0,0.05,"L",3.8698,"FALSE","2014-11-11",4,0.05,3,8
1,12,"radial",0.2,0,"L",5.0208,"TRUE","2014-11-11",4,0.2,3,8
1,13,"linear",0,0.15,"L",4.8245,"FALSE","2014-11-11",4,0.15,3,8
1,14,"linear",0,0.2,"R",1.8519,"TRUE","2014-11-11",4,0.2,3,8
1,15,"linear",0.1,0,"R",3.6534,"FALSE","2014-11-11",4,0.1,3,8
1,16,"linear",0,0.05,"L",5.5217,"FALSE","2014-11-11",4,0.05,3,8
2,1,"linear",0.2,0,"R",3.6864,"FALSE","2014-11-11",4,0.2,3,8
2,2,"radial",0.15,0,"L",4.6207,"TRUE","2014-11-11",4,0.15,3,8
2,3,"linear",0,0.1,"L",4.8433,"FALSE","2014-11-11",4,0.1,3,8
2,4,"radial",0.1,0,"L",1.5849,"TRUE","2014-11-11",4,0.1,3,8
2,5,"radial",0,0.15,"R",5.488,"TRUE","2014-11-11",4,0.15,3,8
2,6,"linear",0.15,0,"L",4.7377,"TRUE","2014-11-11",4,0.15,3,8
2,7,"radial",0,0.2,"R",1.0343,"TRUE","2014-11-11",4,0.2,3,8
2,8,"radial",0.05,0,"R",1.7348,"FALSE","2014-11-11",4,0.05,3,8
2,9,"radial",0,0.1,"R",1.4735,"TRUE","2014-11-11",4,0.1,3,8
2,10,"linear",0.05,0,"L",3.4867,"TRUE","2014-11-11",4,0.05,3,8
2,11,"radial",0,0.05,"L",3.5201,"FALSE","2014-11-11",4,0.05,3,8
2,12,"linear",0,0.15,"R",2.0357,"TRUE","2014-11-11",4,0.15,3,8
2,13,"linear",0,0.2,"R",1.8516,"TRUE","2014-11-11",4,0.2,3,8
2,14,"linear",0.1,0,"L",6.8892,"TRUE","2014-11-11",4,0.1,3,8
2,15,"radial",0.2,0,"L",4.3704,"TRUE","2014-11-11",4,0.2,3,8
2,16,"linear",0,0.05,"R",3.0528,"TRUE","2014-11-11",4,0.05,3,8
3,1,"radial",0.15,0,"R",3.8037,"FALSE","2014-11-11",4,0.15,3,8
3,2,"radial",0.1,0,"L",3.8032,"TRUE","2014-11-11",4,0.1,3,8
3,3,"radial",0,0.15,"L",5.3045,"FALSE","2014-11-11",4,0.15,3,8
3,4,"radial",0,0.2,"R",2.8861,"TRUE","2014-11-11",4,0.2,3,8
3,5,"radial",0.05,0,"R",6.5248,"FALSE","2014-11-11",4,0.05,3,8
3,6,"radial",0,0.1,"R",4.0236,"TRUE","2014-11-11",4,0.1,3,8
3,7,"radial",0,0.05,"R",7.0562,"TRUE","2014-11-11",4,0.05,3,8
3,8,"linear",0.2,0,"L",2.6857,"TRUE","2014-11-11",4,0.2,3,8
3,9,"linear",0,0.1,"L",4.7538,"FALSE","2014-11-11",4,0.1,3,8
3,10,"radial",0.2,0,"L",3.7032,"TRUE","2014-11-11",4,0.2,3,8
3,11,"linear",0.15,0,"L",6.5956,"TRUE","2014-11-11",4,0.15,3,8
3,12,"linear",0.05,0,"L",3.9198,"TRUE","2014-11-11",4,0.05,3,8
3,13,"linear",0,0.15,"L",3.9929,"FALSE","2014-11-11",4,0.15,3,8
3,14,"linear",0,0.2,"R",3.3361,"TRUE","2014-11-11",4,0.2,3,8
3,15,"linear",0.1,0,"R",3.2099,"FALSE","2014-11-11",4,0.1,3,8
3,16,"linear",0,0.05,"L",3.4528,"FALSE","2014-11-11",4,0.05,3,8
4,1,"radial",0.15,0,"R",4.4205,"FALSE","2014-11-11",4,0.15,3,8
4,2,"linear",0.2,0,"L",5.3879,"TRUE","2014-11-11",4,0.2,3,8
4,3,"radial",0.1,0,"R",5.7884,"FALSE","2014-11-11",4,0.1,3,8
4,4,"radial",0,0.15,"R",4.7538,"TRUE","2014-11-11",4,0.15,3,8
4,5,"linear",0,0.1,"R",4.8878,"TRUE","2014-11-11",4,0.1,3,8
4,6,"radial",0,0.2,"R",1.9854,"TRUE","2014-11-11",4,0.2,3,8
4,7,"radial",0.05,0,"L",3.1692,"TRUE","2014-11-11",4,0.05,3,8
4,8,"linear",0.15,0,"L",4.571,"TRUE","2014-11-11",4,0.15,3,8
4,9,"radial",0,0.1,"L",5.5418,"FALSE","2014-11-11",4,0.1,3,8
4,10,"radial",0,0.05,"R",4.4383,"TRUE","2014-11-11",4,0.05,3,8
4,11,"radial",0.2,0,"L",5.6045,"TRUE","2014-11-11",4,0.2,3,8
4,12,"linear",0.05,0,"R",3.2086,"FALSE","2014-11-11",4,0.05,3,8
4,13,"linear",0,0.15,"R",4.754,"TRUE","2014-11-11",4,0.15,3,8
4,14,"linear",0,0.2,"L",6.6889,"FALSE","2014-11-11",4,0.2,3,8
4,15,"linear",0.1,0,"L",3.5867,"TRUE","2014-11-11",4,0.1,3,8
4,16,"linear",0,0.05,"L",3.67,"FALSE","2014-11-11",4,0.05,3,8
5,1,"linear",0.2,0,"R",5.5082,"FALSE","2014-11-11",4,0.2,3,8
5,2,"radial",0.15,0,"R",6.6223,"FALSE","2014-11-11",4,0.15,3,8
5,3,"linear",0,0.1,"R",4.5383,"TRUE","2014-11-11",4,0.1,3,8
5,4,"radial",0.1,0,"R",2.185,"FALSE","2014-11-11",4,0.1,3,8
5,5,"linear",0.15,0,"L",1.9352,"TRUE","2014-11-11",4,0.15,3,8
5,6,"radial",0,0.15,"L",2.2019,"FALSE","2014-11-11",4,0.15,3,8
5,7,"radial",0,0.2,"R",1.7685,"TRUE","2014-11-11",4,0.2,3,8
5,8,"radial",0.05,0,"L",5.9047,"TRUE","2014-11-11",4,0.05,3,8
5,9,"linear",0.05,0,"L",3.6702,"TRUE","2014-11-11",4,0.05,3,8
5,10,"linear",0,0.15,"R",1.0177,"TRUE","2014-11-11",4,0.15,3,8
5,11,"linear",0,0.2,"R",1.9853,"TRUE","2014-11-11",4,0.2,3,8
5,12,"radial",0,0.1,"R",2.5359,"TRUE","2014-11-11",4,0.1,3,8
5,13,"radial",0,0.05,"L",4.4874,"FALSE","2014-11-11",4,0.05,3,8
5,14,"linear",0.1,0,"R",1.2014,"FALSE","2014-11-11",4,0.1,3,8
5,15,"radial",0.2,0,"L",2.1351,"TRUE","2014-11-11",4,0.2,3,8
5,16,"linear",0,0.05,"L",1.7681,"FALSE","2014-11-11",4,0.05,3,8
1,1,"radial",0.15,0,"R",2.1521,"FALSE","2014-11-11",4,0.15,4,8
1,2,"radial",0.1,0,"R",2.5617,"FALSE","2014-11-11",4,0.1,4,8
1,3,"radial",0,0.15,"R",3.5724,"TRUE","2014-11-11",4,0.15,4,8
1,4,"radial",0,0.2,"R",3.5203,"TRUE","2014-11-11",4,0.2,4,8
1,5,"radial",0.05,0,"R",4.4037,"FALSE","2014-11-11",4,0.05,4,8
1,6,"linear",0.2,0,"L",4.4873,"TRUE","2014-11-11",4,0.2,4,8
1,7,"linear",0,0.1,"L",4.0033,"FALSE","2014-11-11",4,0.1,4,8
1,8,"linear",0.15,0,"L",5.2548,"TRUE","2014-11-11",4,0.15,4,8
1,9,"radial",0,0.1,"R",4.5373,"TRUE","2014-11-11",4,0.1,4,8
1,10,"linear",0.05,0,"L",7.9399,"TRUE","2014-11-11",4,0.05,4,8
1,11,"radial",0,0.05,"R",2.7194,"TRUE","2014-11-11",4,0.05,4,8
1,12,"radial",0.2,0,"L",2.2023,"TRUE","2014-11-11",4,0.2,4,8
1,13,"linear",0,0.15,"R",2.6357,"TRUE","2014-11-11",4,0.15,4,8
1,14,"linear",0,0.2,"R",2.569,"TRUE","2014-11-11",4,0.2,4,8
1,15,"linear",0.1,0,"R",2.9193,"FALSE","2014-11-11",4,0.1,4,8
1,16,"linear",0,0.05,"L",4.7872,"FALSE","2014-11-11",4,0.05,4,8
2,1,"linear",0.2,0,"L",4.4706,"TRUE","2014-11-11",4,0.2,4,8
2,2,"radial",0.15,0,"L",4.4707,"TRUE","2014-11-11",4,0.15,4,8
2,3,"linear",0,0.1,"R",2.0354,"TRUE","2014-11-11",4,0.1,4,8
2,4,"radial",0.1,0,"L",4.7204,"TRUE","2014-11-11",4,0.1,4,8
2,5,"radial",0,0.15,"R",1.9855,"TRUE","2014-11-11",4,0.15,4,8
2,6,"linear",0.15,0,"R",4.6875,"FALSE","2014-11-11",4,0.15,4,8
2,7,"radial",0,0.2,"R",1.2015,"TRUE","2014-11-11",4,0.2,4,8
2,8,"radial",0.05,0,"L",4.1367,"TRUE","2014-11-11",4,0.05,4,8
2,9,"radial",0,0.1,"L",1.8182,"FALSE","2014-11-11",4,0.1,4,8
2,10,"linear",0.05,0,"L",3.8888,"TRUE","2014-11-11",4,0.05,4,8
2,11,"radial",0,0.05,"R",6.3898,"TRUE","2014-11-11",4,0.05,4,8
2,12,"linear",0,0.15,"R",3.6368,"TRUE","2014-11-11",4,0.15,4,8
2,13,"linear",0,0.2,"R",1.7016,"TRUE","2014-11-11",4,0.2,4,8
2,14,"linear",0.1,0,"R",2.1215,"FALSE","2014-11-11",4,0.1,4,8
2,15,"radial",0.2,0,"L",2.0348,"TRUE","2014-11-11",4,0.2,4,8
2,16,"linear",0,0.05,"R",4.2538,"TRUE","2014-11-11",4,0.05,4,8
3,1,"radial",0.15,0,"L",3.6032,"TRUE","2014-11-11",4,0.15,4,8
3,2,"radial",0.1,0,"R",5.4048,"FALSE","2014-11-11",4,0.1,4,8
3,3,"radial",0,0.15,"R",1.7351,"TRUE","2014-11-11",4,0.15,4,8
3,4,"radial",0,0.2,"R",1.8523,"TRUE","2014-11-11",4,0.2,4,8
3,5,"radial",0.05,0,"R",3.1432,"FALSE","2014-11-11",4,0.05,4,8
3,6,"radial",0,0.1,"R",2.2186,"TRUE","2014-11-11",4,0.1,4,8
3,7,"radial",0,0.05,"R",2.2687,"TRUE","2014-11-11",4,0.05,4,8
3,8,"linear",0.2,0,"L",3.5055,"TRUE","2014-11-11",4,0.2,4,8
3,9,"linear",0,0.1,"L",3.7535,"FALSE","2014-11-11",4,0.1,4,8
3,10,"radial",0.2,0,"L",3.9199,"TRUE","2014-11-11",4,0.2,4,8
3,11,"linear",0.15,0,"L",3.0572,"TRUE","2014-11-11",4,0.15,4,8
3,12,"linear",0.05,0,"L",5.1711,"TRUE","2014-11-11",4,0.05,4,8
3,13,"linear",0,0.15,"R",1.9686,"TRUE","2014-11-11",4,0.15,4,8
3,14,"linear",0,0.2,"R",1.8516,"TRUE","2014-11-11",4,0.2,4,8
3,15,"linear",0.1,0,"L",3.9866,"TRUE","2014-11-11",4,0.1,4,8
3,16,"linear",0,0.05,"R",5.5218,"TRUE","2014-11-11",4,0.05,4,8
4,1,"radial",0.15,0,"L",1.785,"TRUE","2014-11-11",4,0.15,4,8
4,2,"linear",0.2,0,"L",3.1026,"TRUE","2014-11-11",4,0.2,4,8
4,3,"radial",0.1,0,"L",5.4548,"TRUE","2014-11-11",4,0.1,4,8
4,4,"radial",0,0.15,"R",2.035,"TRUE","2014-11-11",4,0.15,4,8
4,5,"linear",0,0.1,"L",2.8357,"FALSE","2014-11-11",4,0.1,4,8
4,6,"radial",0,0.2,"R",1.1032,"TRUE","2014-11-11",4,0.2,4,8
4,7,"radial",0.05,0,"R",3.6035,"FALSE","2014-11-11",4,0.05,4,8
4,8,"linear",0.15,0,"L",2.9355,"TRUE","2014-11-11",4,0.15,4,8
4,9,"radial",0,0.1,"R",4.3706,"TRUE","2014-11-11",4,0.1,4,8
4,10,"radial",0,0.05,"R",2.9524,"TRUE","2014-11-11",4,0.05,4,8
4,11,"radial",0.2,0,"L",1.7348,"TRUE","2014-11-11",4,0.2,4,8
4,12,"linear",0.05,0,"L",4.7543,"TRUE","2014-11-11",4,0.05,4,8
4,13,"linear",0,0.15,"L",4.0441,"FALSE","2014-11-11",4,0.15,4,8
4,14,"linear",0,0.2,"R",3.2363,"TRUE","2014-11-11",4,0.2,4,8
4,15,"linear",0.1,0,"R",1.9517,"FALSE","2014-11-11",4,0.1,4,8
4,16,"linear",0,0.05,"R",2.0685,"TRUE","2014-11-11",4,0.05,4,8
5,1,"linear",0.2,0,"L",1.8016,"TRUE","2014-11-11",4,0.2,4,8
5,2,"radial",0.15,0,"L",3.42,"TRUE","2014-11-11",4,0.15,4,8
5,3,"linear",0,0.1,"R",4.5539,"TRUE","2014-11-11",4,0.1,4,8
5,4,"radial",0.1,0,"R",4.3706,"FALSE","2014-11-11",4,0.1,4,8
5,5,"linear",0.15,0,"L",3.8601,"TRUE","2014-11-11",4,0.15,4,8
5,6,"radial",0,0.15,"R",3.0919,"TRUE","2014-11-11",4,0.15,4,8
5,7,"radial",0,0.2,"R",2.8538,"TRUE","2014-11-11",4,0.2,4,8
5,8,"radial",0.05,0,"L",5.8883,"TRUE","2014-11-11",4,0.05,4,8
5,9,"linear",0.05,0,"L",3.7892,"TRUE","2014-11-11",4,0.05,4,8
5,10,"linear",0,0.15,"R",1.0009,"TRUE","2014-11-11",4,0.15,4,8
5,11,"linear",0,0.2,"R",1.6852,"TRUE","2014-11-11",4,0.2,4,8
5,12,"radial",0,0.1,"R",1.8365,"TRUE","2014-11-11",4,0.1,4,8
5,13,"radial",0,0.05,"R",1.8853,"TRUE","2014-11-11",4,0.05,4,8
5,14,"linear",0.1,0,"L",3.1189,"TRUE","2014-11-11",4,0.1,4,8
5,15,"radial",0.2,0,"L",2.2464,"TRUE","2014-11-11",4,0.2,4,8
5,16,"linear",0,0.05,"L",2.2527,"FALSE","2014-11-11",4,0.05,4,8
1,1,"linear",0.1,0,"L",3.9992,"TRUE","2014-12-01",5,0.1,1,2
1,2,"linear",0.2,0,"L",4.9216,"TRUE","2014-12-01",5,0.2,1,2
1,3,"radial",0.2,0,"R",3.5872,"FALSE","2014-12-01",5,0.2,1,2
1,4,"linear",0.05,0,"L",1.9553,"TRUE","2014-12-01",5,0.05,1,2
1,5,"linear",0,0.2,"L",5.1074,"FALSE","2014-12-01",5,0.2,1,2
1,6,"radial",0,0.05,"R",1.7949,"TRUE","2014-12-01",5,0.05,1,2
1,7,"radial",0,0.2,"R",2.8539,"TRUE","2014-12-01",5,0.2,1,2
1,8,"linear",0,0.15,"L",5.9718,"FALSE","2014-12-01",5,0.15,1,2
1,9,"radial",0,0.15,"R",1.3026,"TRUE","2014-12-01",5,0.15,1,2
1,10,"linear",0,0.1,"R",1.1677,"TRUE","2014-12-01",5,0.1,1,2
1,11,"radial",0.05,0,"R",1.4678,"FALSE","2014-12-01",5,0.05,1,2
1,12,"linear",0,0.05,"L",2.7186,"FALSE","2014-12-01",5,0.05,1,2
1,13,"radial",0.15,0,"L",2.8067,"TRUE","2014-12-01",5,0.15,1,2
1,14,"linear",0.15,0,"R",2.1856,"FALSE","2014-12-01",5,0.15,1,2
1,15,"radial",0,0.1,"R",1.8583,"TRUE","2014-12-01",5,0.1,1,2
1,16,"radial",0.1,0,"L",1.9353,"TRUE","2014-12-01",5,0.1,1,2
2,1,"radial",0.2,0,"L",1.7022,"TRUE","2014-12-01",5,0.2,1,2
2,2,"linear",0.1,0,"L",2.452,"TRUE","2014-12-01",5,0.1,1,2
2,3,"linear",0.2,0,"L",2.0249,"TRUE","2014-12-01",5,0.2,1,2
2,4,"linear",0.05,0,"R",2.3692,"FALSE","2014-12-01",5,0.05,1,2
2,5,"linear",0,0.2,"R",5.3734,"TRUE","2014-12-01",5,0.2,1,2
2,6,"radial",0,0.05,"L",4.9545,"FALSE","2014-12-01",5,0.05,1,2
2,7,"radial",0,0.2,"R",4.2204,"TRUE","2014-12-01",5,0.2,1,2
2,8,"linear",0,0.15,"R",1.5015,"TRUE","2014-12-01",5,0.15,1,2
2,9,"linear",0,0.1,"R",1.7852,"TRUE","2014-12-01",5,0.1,1,2
2,10,"radial",0,0.15,"L",1.4679,"FALSE","2014-12-01",5,0.15,1,2
2,11,"radial",0.05,0,"L",6.8559,"TRUE","2014-12-01",5,0.05,1,2
2,12,"radial",0.15,0,"L",2.8854,"TRUE","2014-12-01",5,0.15,1,2
2,13,"linear",0,0.05,"R",4.2705,"TRUE","2014-12-01",5,0.05,1,2
2,14,"radial",0,0.1,"R",2.086,"TRUE","2014-12-01",5,0.1,1,2
2,15,"radial",0.1,0,"R",2.4694,"FALSE","2014-12-01",5,0.1,1,2
2,16,"linear",0.15,0,"L",1.6184,"TRUE","2014-12-01",5,0.15,1,2
3,1,"radial",0.2,0,"L",2.619,"TRUE","2014-12-01",5,0.2,1,2
3,2,"radial",0,0.05,"R",4.8711,"TRUE","2014-12-01",5,0.05,1,2
3,3,"radial",0,0.2,"R",1.7347,"TRUE","2014-12-01",5,0.2,1,2
3,4,"radial",0,0.15,"R",2.074,"TRUE","2014-12-01",5,0.15,1,2
3,5,"linear",0.1,0,"L",2.752,"TRUE","2014-12-01",5,0.1,1,2
3,6,"linear",0.2,0,"R",2.285,"FALSE","2014-12-01",5,0.2,1,2
3,7,"linear",0.05,0,"R",4.2872,"FALSE","2014-12-01",5,0.05,1,2
3,8,"linear",0,0.2,"R",3.9032,"TRUE","2014-12-01",5,0.2,1,2
3,9,"linear",0,0.15,"R",1.1177,"TRUE","2014-12-01",5,0.15,1,2
3,10,"radial",0.05,0,"R",2.0852,"FALSE","2014-12-01",5,0.05,1,2
3,11,"radial",0.15,0,"L",3.3531,"TRUE","2014-12-01",5,0.15,1,2
3,12,"radial",0,0.1,"R",3.6945,"TRUE","2014-12-01",5,0.1,1,2
3,13,"radial",0.1,0,"R",2.7021,"FALSE","2014-12-01",5,0.1,1,2
3,14,"linear",0,0.1,"R",3.5381,"TRUE","2014-12-01",5,0.1,1,2
3,15,"linear",0,0.05,"L",1.852,"FALSE","2014-12-01",5,0.05,1,2
3,16,"linear",0.15,0,"R",3.6935,"FALSE","2014-12-01",5,0.15,1,2
4,1,"linear",0.1,0,"R",1.2514,"FALSE","2014-12-01",5,0.1,1,2
4,2,"radial",0.2,0,"R",2.5526,"FALSE","2014-12-01",5,0.2,1,2
4,3,"radial",0,0.05,"R",4.287,"TRUE","2014-12-01",5,0.05,1,2
4,4,"linear",0.2,0,"L",1.3527,"TRUE","2014-12-01",5,0.2,1,2
4,5,"linear",0.05,0,"R",3.0578,"FALSE","2014-12-01",5,0.05,1,2
4,6,"radial",0,0.2,"R",3.1198,"TRUE","2014-12-01",5,0.2,1,2
4,7,"radial",0,0.15,"R",3.1024,"TRUE","2014-12-01",5,0.15,1,2
4,8,"linear",0,0.2,"L",2.7371,"FALSE","2014-12-01",5,0.2,1,2
4,9,"linear",0,0.15,"R",2.419,"TRUE","2014-12-01",5,0.15,1,2
4,10,"linear",0,0.1,"L",4.4876,"FALSE","2014-12-01",5,0.1,1,2
4,11,"radial",0.05,0,"L",3.7197,"TRUE","2014-12-01",5,0.05,1,2
4,12,"linear",0,0.05,"L",3.5203,"FALSE","2014-12-01",5,0.05,1,2
4,13,"radial",0.15,0,"L",5.2215,"TRUE","2014-12-01",5,0.15,1,2
4,14,"linear",0.15,0,"L",1.952,"TRUE","2014-12-01",5,0.15,1,2
4,15,"radial",0,0.1,"R",2.6691,"TRUE","2014-12-01",5,0.1,1,2
4,16,"radial",0.1,0,"L",2.4357,"TRUE","2014-12-01",5,0.1,1,2
5,1,"radial",0.2,0,"L",3.1359,"TRUE","2014-12-01",5,0.2,1,2
5,2,"linear",0.1,0,"L",2.8692,"TRUE","2014-12-01",5,0.1,1,2
5,3,"linear",0.2,0,"L",1.8015,"TRUE","2014-12-01",5,0.2,1,2
5,4,"radial",0,0.05,"L",4.9792,"FALSE","2014-12-01",5,0.05,1,2
5,5,"radial",0,0.2,"R",1.3679,"TRUE","2014-12-01",5,0.2,1,2
5,6,"linear",0.05,0,"R",2.6691,"FALSE","2014-12-01",5,0.05,1,2
5,7,"linear",0,0.2,"R",1.952,"TRUE","2014-12-01",5,0.2,1,2
5,8,"radial",0,0.15,"R",2.9692,"TRUE","2014-12-01",5,0.15,1,2
5,9,"radial",0.05,0,"R",2.8045,"FALSE","2014-12-01",5,0.05,1,2
5,10,"radial",0.15,0,"L",1.3241,"TRUE","2014-12-01",5,0.15,1,2
5,11,"radial",0,0.1,"L",2.0733,"FALSE","2014-12-01",5,0.1,1,2
5,12,"radial",0.1,0,"L",2.702,"TRUE","2014-12-01",5,0.1,1,2
5,13,"linear",0,0.15,"R",1.9687,"TRUE","2014-12-01",5,0.15,1,2
5,14,"linear",0,0.1,"L",2.3578,"FALSE","2014-12-01",5,0.1,1,2
5,15,"linear",0,0.05,"R",2.7357,"TRUE","2014-12-01",5,0.05,1,2
5,16,"linear",0.15,0,"L",2.4858,"TRUE","2014-12-01",5,0.15,1,2
1,1,"linear",0.1,0,"L",3.086,"TRUE","2014-12-01",5,0.1,4,2
1,2,"linear",0.2,0,"L",1.5683,"TRUE","2014-12-01",5,0.2,4,2
1,3,"radial",0.2,0,"L",0.93657,"TRUE","2014-12-01",5,0.2,4,2
1,4,"linear",0.05,0,"L",2.4023,"TRUE","2014-12-01",5,0.05,4,2
1,5,"linear",0,0.2,"R",2.1018,"TRUE","2014-12-01",5,0.2,4,2
1,6,"radial",0,0.05,"L",3.7916,"FALSE","2014-12-01",5,0.05,4,2
1,7,"radial",0,0.2,"R",0.78565,"TRUE","2014-12-01",5,0.2,4,2
1,8,"linear",0,0.15,"R",1.001,"TRUE","2014-12-01",5,0.15,4,2
1,9,"radial",0,0.15,"R",0.93431,"TRUE","2014-12-01",5,0.15,4,2
1,10,"linear",0,0.1,"R",2.3356,"TRUE","2014-12-01",5,0.1,4,2
1,11,"radial",0.05,0,"L",2.9709,"TRUE","2014-12-01",5,0.05,4,2
1,12,"linear",0,0.05,"L",1.5347,"FALSE","2014-12-01",5,0.05,4,2
1,13,"radial",0.15,0,"L",0.95107,"TRUE","2014-12-01",5,0.15,4,2
1,14,"linear",0.15,0,"L",2.1016,"TRUE","2014-12-01",5,0.15,4,2
1,15,"radial",0,0.1,"L",2.4521,"FALSE","2014-12-01",5,0.1,4,2
1,16,"radial",0.1,0,"L",3.5198,"TRUE","2014-12-01",5,0.1,4,2
2,1,"radial",0.2,0,"L",0.90087,"TRUE","2014-12-01",5,0.2,4,2
2,2,"linear",0.1,0,"L",2.586,"TRUE","2014-12-01",5,0.1,4,2
2,3,"linear",0.2,0,"L",2.5856,"TRUE","2014-12-01",5,0.2,4,2
2,4,"linear",0.05,0,"R",2.1865,"FALSE","2014-12-01",5,0.05,4,2
2,5,"linear",0,0.2,"R",1.2717,"TRUE","2014-12-01",5,0.2,4,2
2,6,"radial",0,0.05,"L",3.2698,"FALSE","2014-12-01",5,0.05,4,2
2,7,"radial",0,0.2,"R",2.5023,"TRUE","2014-12-01",5,0.2,4,2
2,8,"linear",0,0.15,"R",2.0351,"TRUE","2014-12-01",5,0.15,4,2
2,9,"linear",0,0.1,"R",1.9013,"TRUE","2014-12-01",5,0.1,4,2
2,10,"radial",0,0.15,"R",3.1695,"TRUE","2014-12-01",5,0.15,4,2
2,11,"radial",0.05,0,"L",4.4206,"TRUE","2014-12-01",5,0.05,4,2
2,12,"radial",0.15,0,"L",0.90079,"TRUE","2014-12-01",5,0.15,4,2
2,13,"linear",0,0.05,"R",3.0418,"TRUE","2014-12-01",5,0.05,4,2
2,14,"radial",0,0.1,"R",3.2362,"TRUE","2014-12-01",5,0.1,4,2
2,15,"radial",0.1,0,"R",2.786,"FALSE","2014-12-01",5,0.1,4,2
2,16,"linear",0.15,0,"L",1.8206,"TRUE","2014-12-01",5,0.15,4,2
3,1,"radial",0.2,0,"L",0.85102,"TRUE","2014-12-01",5,0.2,4,2
3,2,"radial",0,0.05,"R",3.7049,"TRUE","2014-12-01",5,0.05,4,2
3,3,"radial",0,0.2,"L",2.6695,"FALSE","2014-12-01",5,0.2,4,2
3,4,"radial",0,0.15,"R",1.3631,"TRUE","2014-12-01",5,0.15,4,2
3,5,"linear",0.1,0,"L",2.7691,"TRUE","2014-12-01",5,0.1,4,2
3,6,"linear",0.2,0,"R",2.2956,"FALSE","2014-12-01",5,0.2,4,2
3,7,"linear",0.05,0,"L",2.8193,"TRUE","2014-12-01",5,0.05,4,2
3,8,"linear",0,0.2,"R",2.7525,"TRUE","2014-12-01",5,0.2,4,2
3,9,"linear",0,0.15,"R",2.5523,"TRUE","2014-12-01",5,0.15,4,2
3,10,"radial",0.05,0,"L",2.6399,"TRUE","2014-12-01",5,0.05,4,2
3,11,"radial",0.15,0,"L",1.3017,"TRUE","2014-12-01",5,0.15,4,2
3,12,"radial",0,0.1,"R",1.0182,"TRUE","2014-12-01",5,0.1,4,2
3,13,"radial",0.1,0,"L",2.419,"TRUE","2014-12-01",5,0.1,4,2
3,14,"linear",0,0.1,"R",2.5357,"TRUE","2014-12-01",5,0.1,4,2
3,15,"linear",0,0.05,"L",3.6198,"FALSE","2014-12-01",5,0.05,4,2
3,16,"linear",0.15,0,"L",2.4355,"TRUE","2014-12-01",5,0.15,4,2
4,1,"linear",0.1,0,"L",1.1031,"TRUE","2014-12-01",5,0.1,4,2
4,2,"radial",0.2,0,"L",0.68477,"TRUE","2014-12-01",5,0.2,4,2
4,3,"radial",0,0.05,"L",2.502,"FALSE","2014-12-01",5,0.05,4,2
4,4,"linear",0.2,0,"L",1.001,"TRUE","2014-12-01",5,0.2,4,2
4,5,"linear",0.05,0,"R",2.9358,"FALSE","2014-12-01",5,0.05,4,2
4,6,"radial",0,0.2,"R",1.0875,"TRUE","2014-12-01",5,0.2,4,2
4,7,"radial",0,0.15,"R",1.0373,"TRUE","2014-12-01",5,0.15,4,2
4,8,"linear",0,0.2,"R",0.94037,"TRUE","2014-12-01",5,0.2,4,2
4,9,"linear",0,0.15,"R",2.2521,"TRUE","2014-12-01",5,0.15,4,2
4,10,"linear",0,0.1,"L",1.0888,"FALSE","2014-12-01",5,0.1,4,2
4,11,"radial",0.05,0,"L",2.7215,"TRUE","2014-12-01",5,0.05,4,2
4,12,"linear",0,0.05,"R",4.0535,"TRUE","2014-12-01",5,0.05,4,2
4,13,"radial",0.15,0,"L",2.6023,"TRUE","2014-12-01",5,0.15,4,2
4,14,"linear",0.15,0,"L",1.5704,"TRUE","2014-12-01",5,0.15,4,2
4,15,"radial",0,0.1,"R",2.3354,"TRUE","2014-12-01",5,0.1,4,2
4,16,"radial",0.1,0,"L",2.7024,"TRUE","2014-12-01",5,0.1,4,2
5,1,"radial",0.2,0,"L",1.1675,"TRUE","2014-12-01",5,0.2,4,2
5,2,"linear",0.1,0,"L",5.121,"TRUE","2014-12-01",5,0.1,4,2
5,3,"linear",0.2,0,"L",1.5015,"TRUE","2014-12-01",5,0.2,4,2
5,4,"radial",0,0.05,"L",3.4051,"FALSE","2014-12-01",5,0.05,4,2
5,5,"radial",0,0.2,"R",1.5233,"TRUE","2014-12-01",5,0.2,4,2
5,6,"linear",0.05,0,"L",1.5683,"TRUE","2014-12-01",5,0.05,4,2
5,7,"linear",0,0.2,"R",1.0341,"TRUE","2014-12-01",5,0.2,4,2
5,8,"radial",0,0.15,"R",1.4181,"TRUE","2014-12-01",5,0.15,4,2
5,9,"radial",0.05,0,"L",2.3187,"TRUE","2014-12-01",5,0.05,4,2
5,10,"radial",0.15,0,"L",1.3679,"TRUE","2014-12-01",5,0.15,4,2
5,11,"radial",0,0.1,"R",1.4681,"TRUE","2014-12-01",5,0.1,4,2
5,12,"radial",0.1,0,"R",3.2698,"FALSE","2014-12-01",5,0.1,4,2
5,13,"linear",0,0.15,"R",2.3522,"TRUE","2014-12-01",5,0.15,4,2
5,14,"linear",0,0.1,"R",1.0693,"TRUE","2014-12-01",5,0.1,4,2
5,15,"linear",0,0.05,"R",3.4028,"TRUE","2014-12-01",5,0.05,4,2
5,16,"linear",0.15,0,"L",1.3846,"TRUE","2014-12-01",5,0.15,4,2
1,1,"radial",0.15,0,"R",2.6187,"FALSE","2014-12-01",5,0.15,2,8
1,2,"radial",0.1,0,"L",1.9015,"TRUE","2014-12-01",5,0.1,2,8
1,3,"radial",0,0.15,"R",2.9097,"TRUE","2014-12-01",5,0.15,2,8
1,4,"radial",0,0.2,"R",2.1521,"TRUE","2014-12-01",5,0.2,2,8
1,5,"radial",0.05,0,"L",2.4355,"TRUE","2014-12-01",5,0.05,2,8
1,6,"linear",0.2,0,"L",2.5022,"TRUE","2014-12-01",5,0.2,2,8
1,7,"linear",0,0.1,"R",2.7889,"TRUE","2014-12-01",5,0.1,2,8
1,8,"linear",0.15,0,"L",4.4036,"TRUE","2014-12-01",5,0.15,2,8
1,9,"radial",0,0.1,"R",3.6864,"TRUE","2014-12-01",5,0.1,2,8
1,10,"linear",0.05,0,"L",2.2356,"TRUE","2014-12-01",5,0.05,2,8
1,11,"radial",0,0.05,"L",2.5395,"FALSE","2014-12-01",5,0.05,2,8
1,12,"radial",0.2,0,"L",1.5686,"TRUE","2014-12-01",5,0.2,2,8
1,13,"linear",0,0.15,"R",3.2532,"TRUE","2014-12-01",5,0.15,2,8
1,14,"linear",0,0.2,"R",2.3023,"TRUE","2014-12-01",5,0.2,2,8
1,15,"linear",0.1,0,"R",2.6191,"FALSE","2014-12-01",5,0.1,2,8
1,16,"linear",0,0.05,"R",3.2195,"TRUE","2014-12-01",5,0.05,2,8
2,1,"linear",0.2,0,"L",4.3038,"TRUE","2014-12-01",5,0.2,2,8
2,2,"radial",0.15,0,"R",3.0038,"FALSE","2014-12-01",5,0.15,2,8
2,3,"linear",0,0.1,"R",2.7523,"TRUE","2014-12-01",5,0.1,2,8
